# t [sec],r_ecef_X,r_ecef_Y,r_ecef_Z,v_ecef_X,v_ecef_Y,v_ecef_Z,q_e2b_scalar,q_e2b_i,q_e2b_j,q_e2b_k,accel_X [m/s^2],accel_Y [m/s^2],accel_Z [m/s^2],gyro_X [rad/s],gyro_Y [rad/s],gyro_Z [rad/s],gps_lat [deg],gps_long [deg],gps_alt [m]
0.0,1526832.4663282905,-4462983.985641108,4278794.896863846,0.0,0.0,0.0,0.901797015,-0.39979036,-0.066508461,-0.150021455,0.0,0.0,0.0,0.0,0.0,0.0,0.0,0.0,0.0
0.37518654100040294,1526832.4663282905,-4462983.985641108,4278794.896863846,0.004905947484205253,-0.007537266685642585,-0.01190601988815354,0.9018317250428195,-0.3996577725222408,-0.06640008341961058,-0.1502139608940103,0.005600000000000077,-0.002799999999999997,9.7995133,-0.000899935395559576,3.636102608321523e-05,0.00117264309118369,nan,nan,nan
0.4503625000002103,1526832.466706713,-4462983.986222498,4278794.89594547,0.005367934763414461,-0.009833629142796285,-0.012659307731201497,0.9018494945943509,-0.3996475875441125,-0.0663149059671122,-0.150171996968153,-0.004399999999999932,0.007200000000000012,9.8195133,-0.000681769239060285,-0.002363466695408988,-0.000136353847812057,nan,nan,nan
0.5225836250001521,1526832.4670949695,-4462983.986933753,4278794.895029837,0.005667658736368486,-0.012006002538010985,-0.01333808863195124,0.9018694587581062,-0.3996294940585094,-0.06628637900241487,-0.15011283540521764,-0.004399999999999932,0.007200000000000012,9.8195133,-0.000681769239060285,-0.0012726359129125319,-0.001227184630308513,nan,nan,nan
0.5970187080001779,1526832.4675169948,-4462983.987827744,4278794.894036656,0.007271377327939171,-0.015942709537372646,-0.015164360142442657,0.9018765369297969,-0.39958037845678573,-0.06644014677887441,-0.15013307677056284,0.005600000000000077,-0.022799999999999987,9.8295133,-0.000681769239060285,0.004181517999569748,-0.001227184630308513,nan,nan,nan
0.681497500000205,1526832.4680589335,-4462983.989015961,4278794.89290645,0.0077106601117525875,-0.018084520115428826,-0.015809458478287353,0.9018937367655449,-0.39949724689137145,-0.06657170839384458,-0.15019269458787693,-0.004399999999999932,0.007200000000000012,9.8195133,-0.0017726000215567408,0.004181517999569748,-0.000136353847812057,nan,nan,nan
0.7534062500003529,1526832.468690268,-4462983.990496688,4278794.891612001,0.007807788459978676,-0.021075715599715883,-0.017045780048642156,0.9019148262789902,-0.399429006810495,-0.06657756958192702,-0.15024494148499598,-0.01439999999999994,-0.002799999999999997,9.8195133,-0.0017726000215567408,0.00090902565208038,0.000954476934684399,nan,nan,nan
1.1300779170001078,1526832.608048792,-4462983.939316334,4278794.896429218,0.30495746292123016,0.100555467024904,0.011806719342585294,0.9015049602443135,-0.395620331413618,-0.07956422541035146,-0.15634223555608498,-0.01439999999999994,0.027200000000000002,9.8195133,-0.0007908523173099305,0.0010181087303300256,0.0006272276999354622,42.403188,-71.113656,22.3
1.2037350000000515,1526832.6317408485,-4462983.9315042095,4278794.897346479,0.32769426755548414,0.1083221516878424,0.011892656096041877,0.9015141239028532,-0.3956239762504372,-0.07940656595837464,-0.15636032635841168,0.015600000000000058,-0.002799999999999997,9.8095133,-0.000681769239060285,-0.0034542974779054442,0.0020453077171808547,nan,nan,nan
1.2761297920001198,1526832.655451754,-4462983.923666366,4278794.898206993,0.3483533037122247,0.11430329678734066,0.011972433258754446,0.9014882811105184,-0.3956923474349805,-0.07930764629056522,-0.15638651795597464,0.005600000000000077,-0.012799999999999978,9.8195133,0.0014998923259326269,-0.002363466695408988,0.0020453077171808547,nan,nan,nan
1.3504720830001133,1526832.681344841,-4462983.915170207,4278794.899096903,0.36877585339391045,0.12009660056801977,0.012012639382782832,0.9014681194509631,-0.3957070111999596,-0.07930932882495034,-0.15646476222722172,-0.004399999999999932,-0.012799999999999978,9.8195133,0.000409061543436171,0.00090902565208038,0.0020453077171808547,nan,nan,nan
1.4250762500000747,1526832.7087695948,-4462983.906238982,4278794.899990248,0.3892320660392317,0.1281237840872719,0.012116424092708057,0.9014991685954182,-0.39565480967625344,-0.07925729079133796,-0.15644424890349964,0.005600000000000077,0.007200000000000012,9.7995133,-0.0017726000215567408,-0.0012726359129125319,-0.000136353847812057,nan,nan,nan
1.4971970420001526,1526832.736805753,-4462983.897010301,4278794.900862986,0.40988601822841425,0.13349034765209986,0.013698119539583033,0.9015168626487007,-0.3955950679434106,-0.07926217709391113,-0.15649088285894172,0.005600000000000077,-0.002799999999999997,9.8395133,-0.0017726000215567408,0.00090902565208038,0.000954476934684399,nan,nan,nan
1.5717275000001791,1526832.7674307115,-4462983.887036464,4278794.901886452,0.4300078981390232,0.14265768419079913,0.013990532198323448,0.9015222613780322,-0.395628847564876,-0.07914916872072125,-0.15643157245866754,0.005600000000000077,0.01720000000000002,9.7895133,0.000409061543436171,-0.0034542974779054442,-0.000136353847812057,nan,nan,nan
1.6571116250001978,1526832.7993488896,-4462983.876447419,4278794.902924927,0.4498491395038421,0.1494596225304676,0.01418782888697865,0.9015276096044956,-0.3955942385149252,-0.07921305425316837,-0.15645593682321746,-0.004399999999999932,-0.002799999999999997,9.8095133,-0.000681769239060285,0.001999856434576836,-0.000136353847812057,nan,nan,nan
1.7354614170003515,1526832.8395143263,-4462983.863102699,4278794.904191708,0.4737433174724649,0.15551604144940065,0.01754025177615668,0.9015149579911912,-0.3956346965708798,-0.0790833786175399,-0.15649213133761317,-0.01439999999999994,0.007200000000000012,9.8495133,0.000409061543436171,-0.002363466695408988,0.0020453077171808547,nan,nan,nan
1.8086615000001984,1526832.8742828022,-4462983.851689228,4278794.905479004,0.49334521478004945,0.16219238452631182,0.018780268495256137,0.9015455171536138,-0.39556748509936773,-0.07912002881111099,-0.15646746252834426,-0.004399999999999932,0.007200000000000012,9.8195133,-0.0017726000215567408,0.00090902565208038,-0.001227184630308513,nan,nan,nan
1.8856490830003168,1526832.9122459223,-4462983.839208457,4278794.906924153,0.5148119680554399,0.16904565154764986,0.019569595688916343,0.9015577063095029,-0.3955447376792965,-0.07911058362797121,-0.15645951170495043,0.005600000000000077,-0.002799999999999997,9.8195133,-0.000681769239060285,-0.000181805130416076,-0.000136353847812057,nan,nan,nan
1.9598768330001803,1526832.9502393883,-4462983.826732775,4278794.908368402,0.535414055219038,0.17560068850583285,0.021397334615158005,0.9015376784206388,-0.3956270524338021,-0.07893711801201965,-0.1564544078227529,0.005600000000000077,0.007200000000000012,9.8295133,0.0014998923259326269,-0.0045451282604018995,0.0020453077171808547,nan,nan,nan
2.0365722920000735,1526832.9914579715,-4462983.813214244,4278794.910015665,0.5557548904411533,0.18256103818620303,0.02274205292313323,0.9015531264075122,-0.3955944112393025,-0.07898213512447728,-0.15642520560636766,-0.004399999999999932,0.007200000000000012,9.8195133,-0.000681769239060285,0.00090902565208038,-0.001227184630308513,nan,nan,nan
2.109763208000004,1526833.032329599,-4462983.799788241,4278794.911688173,0.5766032401003115,0.18975730020115997,0.02402626777211867,0.9015457390708855,-0.3956025590635565,-0.07901554601677682,-0.15643030291446655,0.015600000000000058,0.007200000000000012,9.8195133,0.000409061543436171,0.00090902565208038,-0.000136353847812057,nan,nan,nan
2.4201213750002353,1526832.6382378694,-4462983.934592322,4278794.9038646305,0.07964653599465299,0.008157369828027033,0.025953596671618992,0.9026342017027512,-0.39779937099353546,-0.06591472179101687,-0.15054038780852932,-0.01439999999999994,0.007200000000000012,9.8295133,-0.0017726000215567408,-0.0012726359129125319,-0.001227184630308513,42.403188,-71.113656,22.3
2.49777691700001,1526832.6466896744,-4462983.933726692,4278794.906618733,0.07965420614431323,0.00630124074810498,0.02807024635781484,0.902687521140516,-0.397699359869667,-0.0659914841677286,-0.15045126423707197,-0.004399999999999932,-0.002799999999999997,9.8295133,-0.0017726000215567408,0.00090902565208038,-0.002318015412804969,nan,nan,nan
2.572016375000203,1526832.6526277594,-4462983.933256945,4278794.908711322,0.07986337318404524,0.006909781216912186,0.028149968041520076,0.902728900334808,-0.39759775803259584,-0.0660069522957857,-0.15046474043153324,0.005600000000000077,-0.002799999999999997,9.7995133,-0.002863430804053197,0.00090902565208038,-0.000136353847812057,nan,nan,nan
2.6590612080003666,1526832.6587115547,-4462983.932730574,4278794.910855717,0.07974540547751077,0.006293160031422634,0.03045350388614236,0.9027484039358763,-0.39753418122197887,-0.06601249029858727,-0.15051327394194508,-0.004399999999999932,0.007200000000000012,9.8295133,-0.0017726000215567408,0.00090902565208038,0.000954476934684399,nan,nan,nan
2.7328842500000974,1526832.6654703333,-4462983.932197201,4278794.913436787,0.08104185745026088,0.006837647697777699,0.032527892146256884,0.902744761668725,-0.39750822502455246,-0.06600723264050198,-0.15060594979413872,0.015600000000000058,0.007200000000000012,9.8195133,-0.000681769239060285,0.00090902565208038,0.0020453077171808547,nan,nan,nan
2.8076425420003943,1526832.6715090254,-4462983.931687706,4278794.915860546,0.08185909268101538,0.006123176183451012,0.03433605381452402,0.9027376417013978,-0.3975167262966119,-0.06604104073298607,-0.15061136765022928,0.005600000000000077,-0.002799999999999997,9.8295133,0.000409061543436171,0.00090902565208038,-0.000136353847812057,nan,nan,nan
2.8816902920002576,1526832.6775932945,-4462983.931232594,4278794.918412612,0.08238247546244737,0.006404691629691678,0.036169600686687384,0.9027854519921484,-0.3973902774993421,-0.06598151570391908,-0.1506845551557511,0.005600000000000077,0.007200000000000012,9.8195133,-0.003954261586549653,-0.000181805130416076,0.0020453077171808547,nan,nan,nan
2.9579161670003487,1526832.6838674992,-4462983.930744817,4278794.921167269,0.08302527492990516,0.006342927248305069,0.03764881070881486,0.9027982002214496,-0.39735246288101805,-0.06606382113671748,-0.15067183549974236,0.005600000000000077,-0.002799999999999997,9.8195133,-0.000681769239060285,0.001999856434576836,-0.001227184630308513,nan,nan,nan
3.032331833000171,1526832.6900484404,-4462983.930272608,4278794.923970091,0.08253185310855046,0.0052956940771339,0.04067676390423579,0.9027641794466261,-0.3974465035596448,-0.06603652173976415,-0.150639607904202,-0.01439999999999994,0.007200000000000012,9.8395133,0.002590723108429083,-0.0012726359129125319,-0.000136353847812057,nan,nan,nan
3.104457625000123,1526832.696001535,-4462983.929890625,4278794.926904142,0.08285813191190361,0.003944229848012987,0.042977972960419816,0.9027710037035124,-0.3974699114000151,-0.06597833792628956,-0.15056242520976598,-0.004399999999999932,-0.002799999999999997,9.8395133,0.000409061543436171,-0.002363466695408988,-0.001227184630308513,nan,nan,nan
3.17925008300017,1526832.7021938444,-4462983.929595858,4278794.930116053,0.08342960898076479,0.0037739171817786354,0.04433715742331783,0.9027793055333277,-0.3974566046202785,-0.06591631216666512,-0.1505749424425393,0.005600000000000077,-0.002799999999999997,9.8195133,-0.000681769239060285,-0.0012726359129125319,0.000954476934684399,nan,nan,nan
3.253484958000172,1526832.7083874014,-4462983.929315694,4278794.933407507,0.08320426103544273,0.003408131223604144,0.04466535041695634,0.9027944041555223,-0.39742585324518453,-0.06595999170810551,-0.15054645478530615,-0.004399999999999932,-0.012799999999999978,9.8095133,-0.000681769239060285,0.00090902565208038,-0.001227184630308513,nan,nan,nan
3.3255711250003515,1526832.714393553,-4462983.9290696755,4278794.936631703,0.08099257302995502,0.0045512694803589715,0.04509975938226894,0.9028024215546113,-0.3974129982387414,-0.06590008183678946,-0.15055854753773817,-0.02439999999999995,0.007200000000000012,9.7895133,-0.000681769239060285,-0.0012726359129125319,0.000954476934684399,nan,nan,nan
3.4018932920002953,1526832.7205646236,-4462983.9287229,4278794.940067991,0.0814574950378815,0.004417786824852471,0.046568691620056044,0.9027978849548043,-0.3974279508188823,-0.06589713549834599,-0.15054757028558555,0.005600000000000077,-0.002799999999999997,9.8195133,0.000409061543436171,-0.000181805130416076,-0.000136353847812057,nan,nan,nan
3.479964375000236,1526832.679166453,-4462984.076874419,4278794.759784174,0.03724408251927916,-0.17621132569046669,-0.13658862836460522,0.9003407332456095,-0.40379500401081714,-0.06430375184495239,-0.1490006270123364,0.015600000000000058,-0.012799999999999978,9.8295133,0.0014998923259326269,-0.002363466695408988,-0.000136353847812057,42.403186,-71.113656,22.3
3.665823334000379,1526832.6858352558,-4462984.108426239,4278794.735327064,0.034684170841543766,-0.19688090294166757,-0.15053156778363147,0.9003940873454623,-0.4036604546553139,-0.06422830941402691,-0.1490753153521985,0.005600000000000077,-0.012799999999999978,9.8295133,-0.0017726000215567408,-0.000181805130416076,0.000954476934684399,nan,nan,nan
3.737685834000331,1526832.688687416,-4462984.124616215,4278794.722948502,0.03207530454837096,-0.2048045745200415,-0.15722877054944112,0.9003709547315525,-0.40371692786897007,-0.06423182479602764,-0.1490605892513176,-0.004399999999999932,-0.002799999999999997,9.8095133,0.0014998923259326269,-0.000181805130416076,-0.000136353847812057,nan,nan,nan
3.812198792000345,1526832.6910759623,-4462984.1398673635,4278794.711240173,0.029205994257968743,-0.2105181430418512,-0.1637967555548,0.9003405005886344,-0.4037793367247839,-0.06416564431200186,-0.14910399351013598,-0.004399999999999932,0.007200000000000012,9.7895133,0.0014998923259326269,-0.0012726359129125319,0.0020453077171808547,nan,nan,nan
3.8869733750002524,1526832.6932462878,-4462984.155511169,4278794.699068279,0.02768303910476519,-0.21810193295851707,-0.16947882491306326,0.9003385558915731,-0.40379991949302657,-0.06412628908768409,-0.14907692442859444,0.005600000000000077,-0.002799999999999997,9.8195133,0.000409061543436171,-0.0012726359129125319,-0.000136353847812057,nan,nan,nan
3.9585854590000054,1526832.695244912,-4462984.17125741,4278794.686832466,0.025971490822123855,-0.22499475968889934,-0.17549621003672866,0.9003634138477663,-0.40373726899158385,-0.06414721859424413,-0.149087476117143,0.005600000000000077,-0.002799999999999997,9.8095133,-0.0017726000215567408,0.00090902565208038,-0.000136353847812057,nan,nan,nan
4.033392709000054,1526832.6971817415,-4462984.188036441,4278794.6737448,0.024257412043770188,-0.22980763247112665,-0.18151821555896686,0.9003588537533265,-0.4037518610504495,-0.06414434387245238,-0.14907673484555342,0.015600000000000058,0.01720000000000002,9.7895133,0.000409061543436171,-0.000181805130416076,-0.000136353847812057,nan,nan,nan
4.107660250000208,1526832.6989794804,-4462984.205067695,4278794.660292318,0.00749540820982128,-0.23655426568355117,-0.1753495407323924,0.9004377260418178,-0.4036708997503861,-0.06404311358836039,-0.14886297852054012,-0.18439999999999993,0.16720000000000002,9.8695133,-0.002863430804053197,-0.0045451282604018995,-0.004499676977797881,nan,nan,nan
4.179958500000339,1526832.6995220536,-4462984.222191247,4278794.6475992175,0.03341384862593294,-0.29348801740387676,-0.23563766771864142,0.9050177747554959,-0.40032252603122137,-0.07433817876261566,-0.12312001569036021,0.14560000000000006,-1.0828,9.8895133,-0.046496662103911436,-0.025270913127834565,-0.7800803633327781,nan,nan,nan
4.255808209000406,1526832.7020648585,-4462984.244525783,4278794.629667113,0.004347514872164726,-0.2712604593268517,-0.2035731264297394,0.9042624147705349,-0.4017226098495639,-0.07540736793509802,-0.12345914055614375,-0.2243999999999999,0.6472,9.7895133,0.04404229284329441,0.025998133649498868,0.0020453077171808547,nan,nan,nan
4.330900750000183,1526832.702388391,-4462984.264712387,4278794.61451765,0.06295040585231024,-0.3039586397884855,-0.2650471934499314,0.9040927212271485,-0.401996641806598,-0.07570516856084208,-0.12362758353307148,0.7156,-0.9127999999999998,9.7495133,0.00913570780340782,0.008544841129555572,0.0020453077171808547,nan,nan,nan
4.40791445900004,1526832.7072538014,-4462984.288205223,4278794.594032262,0.042091564209784826,-0.29509038350827066,-0.24976221748120414,0.9060502679997151,-0.3982803820799248,-0.07286587454166427,-0.12302932167551373,-0.18439999999999993,0.3872,9.7895133,-0.11521900140118817,-0.06454082129770698,0.0020453077171808547,nan,nan,nan
4.484931792000225,1526832.7966634103,-4462984.216135586,4278794.586406438,0.11937522061776268,-0.19956862681026064,-0.19542932411928962,0.9068288955464098,-0.3955362293846809,-0.07534057453259313,-0.12464446972116959,-0.26439999999999997,0.3972,9.7995133,-0.02358921567148586,-0.008908451390387723,0.003136138499677311,42.403184,-71.113655,22.3
4.771580084000107,1526832.8300967438,-4462984.27202863,4278794.531672685,-0.07504730502436885,-0.28509321538867927,-0.13502426841419837,0.8986416008841728,-0.4093445155426661,-0.09055817081613932,-0.12914936705478292,-0.7243999999999999,0.0572,9.9995133,0.1236729399655357,0.10344711920674725,0.000954476934684399,nan,nan,nan
5.145418584000254,1526832.8012737131,-4462984.381522908,4278794.479814612,-0.056924036456958205,-0.28547239987918316,-0.1286621845145616,0.9005019838558608,-0.40765667259040167,-0.09719177259918264,-0.1160429845357081,-0.20439999999999994,0.32720000000000005,9.8195133,-0.001227184630308513,0.003417936451822229,-0.0774762563268108,nan,nan,nan
5.220402166999975,1526832.7969920982,-4462984.4029950835,4278794.47013712,-0.12669601291534782,-0.4266331358745491,-0.2331385597714147,0.9068423546916914,-0.38426289381308504,-0.13219793439260674,-0.11181537852502647,-1.5844,-1.8227999999999998,9.9795133,-0.5100997446649052,0.8484845436518267,-0.5608233760509904,nan,nan,nan
5.295297250000203,1526832.7875164084,-4462984.434903296,4278794.4527005125,0.021402084899963286,-0.35945521082505133,-0.12125544112306583,0.8981454142552404,-0.4103933420678667,-0.12458294105985948,-0.0969082607019122,1.0056,1.4072,10.8095133,0.7530823014659908,-0.3852450713516651,-0.1648518020047769,nan,nan,nan
5.371210334000352,1526832.7891425013,-4462984.462214073,4278794.443487736,0.024056302493178916,-0.4607893056887345,-0.0426343549940785,0.8959612101731157,-0.4172318779759315,-0.11975236225383619,-0.09397043235600205,-1.1044,0.3772,11.3895133,0.1825778022203443,-0.1561706070274093,0.010771953977152502,nan,nan,nan
5.445834042000115,1526832.790937812,-4462984.496602568,4278794.440305954,0.058699541711338954,-0.5416591201775265,0.03574246012205737,0.8955095799692738,-0.4212293199242176,-0.11617694058438217,-0.084447446691023,-0.49439999999999995,0.6772,11.3495133,0.12258210918303925,-0.20089466910976397,-0.174669279047245,nan,nan,nan
5.523935167000218,1526832.9783697163,-4462984.278099528,4278794.527535224,0.3238027620008096,-0.43409696202603665,0.19977429729834748,0.8954507632579813,-0.416652601282814,-0.13517926719209955,-0.07934170847110954,-0.4643999999999999,-0.46279999999999993,11.4395133,0.13458124779050024,0.23216515154132905,-0.30556897294681973,42.403183,-71.113653,22.3
5.5966024590002235,1526833.0030681228,-4462984.311210743,4278794.542773225,0.3479518047992946,-0.5200438318392872,0.31176919517571944,0.8924516859931978,-0.4246079338232585,-0.13712250820077923,-0.06659961714389716,-0.9243999999999999,1.0172,11.5795133,0.26875343403756435,-0.09944740633759357,-0.2859340188618835,nan,nan,nan
5.681249084000228,1526833.0290009996,-4462984.349969653,4278794.56600941,0.4153939173250408,-0.5752896328632272,0.3597988115964169,0.8896402115571839,-0.4285409942327705,-0.14739791081860787,-0.05627403207103398,-0.05439999999999992,0.8371999999999999,10.9595133,0.1825778022203443,0.1318087195516551,-0.34483888111669214,nan,nan,nan
5.761130000000321,1526833.066366998,-4462984.401718778,4278794.598374452,0.38623987251479747,-0.5957288030572939,0.4251848039201067,0.8796512930435729,-0.44710817003702347,-0.15632762607601208,-0.043238418277003865,-1.2544,1.3372000000000002,10.2295133,0.5163720216642599,0.06199554947188192,-0.2695715571244367,nan,nan,nan
5.836096750000252,1526833.0952636788,-4462984.446288452,4278794.630184813,0.4004916336341267,-0.6583822413313474,0.36916773067512093,0.8824780940216805,-0.443737600720471,-0.15265349576137965,-0.032035387734139525,-0.6444,0.2672,9.9695133,-0.07049493931883347,-0.22816543867217537,-0.236846633649543,nan,nan,nan
5.914239834,1526833.1265476155,-4462984.497717212,4278794.65902192,0.389896875027421,-0.640381051454492,0.3109895457764326,0.890104957352392,-0.43306711386818764,-0.13897227255771158,-0.029201845822892245,-0.5843999999999999,0.8271999999999999,9.0595133,-0.32793100398799707,-0.3623376249192395,0.04349687745204618,nan,nan,nan
5.9892301250001765,1526833.1554688986,-4462984.545218597,4278794.682090113,0.4041453717011211,-0.6601434603799329,0.23176730190329853,0.8927039897320089,-0.42501777680670283,-0.14722542639703876,-0.027643272125338663,-0.02439999999999995,0.0572,9.3695133,-0.2112121102608763,0.1765327816340098,-0.16594263278727336,nan,nan,nan
6.065027500000269,1526833.1864059742,-4462984.595752167,4278794.699831755,0.44268687970124,-0.6501835735740904,0.16413981407879202,0.8948439881240845,-0.4166849600651378,-0.15889199567704668,-0.019524734062409906,0.17560000000000006,0.32720000000000005,9.2695133,-0.17848718678598263,0.17980527398149915,-0.35247469659416736,nan,nan,nan
6.139179334000346,1526833.2193423025,-4462984.644126448,4278794.712043914,0.42269002786455745,-0.5912417209280805,-0.025533547440564797,0.8982043792760035,-0.4136733941878077,-0.14766161635292915,-0.017299237073721076,-0.13439999999999994,-0.6928000000000001,7.5495133,-0.10649235514121651,-0.3077960857944167,0.05767767762450011,nan,nan,nan
6.215739959000075,1526833.2516924785,-4462984.689376566,4278794.710089728,0.41082745199918064,-0.4929085687290698,-0.11268214400001464,0.8935947743617119,-0.41585313605173835,-0.16720269890146935,-0.024450081925935396,-0.13439999999999994,0.6372,8.0795133,0.08222137023067037,0.5528694015952871,-0.03286127732270573,nan,nan,nan
6.289903875000164,1526833.2820812825,-4462984.725836889,4278794.7017546585,0.3118612342690603,-0.6053530449578701,-0.13348832750886497,0.9011230617597749,-0.4012944638290746,-0.1595187063835557,-0.0386492397763045,-2.3444,-0.6128,10.2595133,-0.5057364215349194,-0.05036002112525305,0.3587469735935219,nan,nan,nan
6.366368709000199,1526833.3059132244,-4462984.77209701,4278794.691553691,0.4803844954208998,-0.563610276887405,-0.23290180914733105,0.9089053856473164,-0.3905899152160512,-0.14057758389281308,-0.03960380709508693,1.6956,-0.08279999999999998,9.2595133,-0.3573834351154014,-0.45833073377892763,0.16894241743913863,nan,nan,nan
6.440615084000001,1526833.3416369976,-4462984.814009866,4278794.674233958,0.3942985101990185,-0.5810390341867245,-0.25714447479955427,0.9063083190669002,-0.38708880612465785,-0.16096122621509892,-0.05346934799671065,-1.5644,-0.32280000000000003,9.4095133,-0.08903906262127322,0.6575891567149469,0.11440087831431582,nan,nan,nan
6.516890291999971,1526833.3717690594,-4462984.858412529,4278794.654583127,0.522340535224691,-0.5647123830747246,-0.3100052229543041,0.9090506364493489,-0.3847367125058607,-0.14819313240637855,-0.0603605706197934,0.8356,-0.24279999999999996,9.7195133,-0.13049063235613856,-0.24125540806213283,0.27911632647128065,nan,nan,nan
6.595165001000169,1526833.2637954743,-4462984.541020863,4278794.532888822,0.58446115415449,-0.3127633803962845,-0.3330397221835776,0.9086365694863767,-0.38413500630857417,-0.1505790083881735,-0.06438823114451772,1.5856000000000001,-0.19279999999999997,8.8995133,0.08113053944817392,0.13399038111664802,0.07840346249193277,42.403181,-71.113651,22.3
6.681245126000249,1526833.3103568153,-4462984.565937287,4278794.506357074,0.6168807414231182,-0.286182703323437,-0.4045022769334333,0.9073784076023995,-0.3810524758135678,-0.1640921898550055,-0.06735866595040013,-0.19439999999999993,-0.4428,9.0795133,-0.047587492886407894,0.3467023837034569,-0.07213118549257816,nan,nan,nan
6.959875917000318,1526833.4884720822,-4462984.648568345,4278794.389562974,0.28847230291357207,-0.3243923471065522,-0.41791131560764494,0.8999545237308602,-0.4162594309301035,-0.08113702503446392,-0.10112727180839316,-2.2144,-0.20279999999999998,9.3995133,0.16403367891790455,-0.4408774412589843,0.4754658673206427,nan,nan,nan
7.033571417000076,1526833.5097434528,-4462984.672488388,4278794.358747029,0.26406845988264593,-0.5795523432149359,-0.4331286745667962,0.891485293481271,-0.42393799282096334,-0.11617761616217026,-0.10969645303821327,-1.0244,-1.8528,12.1195133,0.36038321976726667,0.949931806423997,-0.14630767870233716,nan,nan,nan
7.110546167000393,1526833.5300354965,-4462984.717023435,4278794.325463743,0.2103910704727523,-0.6829123300477019,-0.3787357215915684,0.8836444345504197,-0.42824939741521456,-0.13559073195823507,-0.1318716075027115,-1.6844,0.5072000000000001,10.9695133,0.17494198674286912,0.7066765419272873,0.3358395271610964,nan,nan,nan
7.184449459000007,1526833.5455680466,-4462984.767440831,4278794.2975028055,0.22454740610493434,-0.9546288539773127,-0.44067606827969596,0.8902483911442565,-0.4127856127399627,-0.13712051605538508,-0.13514364436926213,-2.0544,-2.0228,11.9295133,-0.4533765439750895,0.10562878077174015,-0.019771307932748262,nan,nan,nan
7.260898542000177,1526833.5628355364,-4462984.840850916,4278794.26361522,0.37883717980906767,-0.9113741909902462,-0.49821327912933816,0.8834424400457964,-0.4269944943660184,-0.13299431080239044,-0.1397056575732671,1.0256,0.0572,9.5795133,0.3712915275922312,-0.07217663677518217,0.2245747873464579,nan,nan,nan
7.334517792000042,1526833.5907242985,-4462984.907943321,4278794.226938377,0.3739107878869179,-0.8409710759652955,-0.5473779050258258,0.877713462778831,-0.43385026741388266,-0.14112269002295816,-0.14655173024950732,-0.7043999999999999,0.8872,8.5995133,0.2371193413451671,0.2692533981462085,0.11658253987930872,nan,nan,nan
7.411725876000219,1526833.619567792,-4462984.972815865,4278794.1847136235,0.38586641269262445,-0.9177881439037759,-0.643400816101954,0.8816244413842687,-0.43013937282385734,-0.1408532993987644,-0.1337116782700789,-1.3344,-0.5828,9.7195133,-0.08249407792629448,-0.15071645311492698,-0.3175681115542808,nan,nan,nan
7.48520683400011,1526833.647970888,-4462985.040372988,4278794.137353774,0.35376136049191326,-0.9863519283570102,-0.6826004787630529,0.8884512336469552,-0.4219956200082895,-0.13334268791445197,-0.12162989049372669,-1.8243999999999998,-0.002799999999999997,9.8895133,-0.25593617234323096,-0.3176135628368848,-0.2575724185169757,nan,nan,nan
7.871994709000319,1526833.3487464816,-4462984.755589848,4278794.240672578,-0.013288746418212927,-1.2133898160862167,-0.5980855179969067,0.8885771740171003,-0.4124855681900846,-0.15026373806318383,-0.13306792036666898,-1.3144,-1.4427999999999999,10.2995133,0.05495060066825898,0.153079919810336,0.04175154820005185,42.403178,-71.113651,22.3
8.152627417000076,1526833.344831901,-4462985.113028552,4278794.064489368,0.022173983095927496,-1.292675873766862,-0.7589169974271817,0.9195033688307158,-0.33815440714793255,-0.20028735277953671,-0.007080148918235374,-1.2544,-0.032799999999999996,9.5895133,-0.36283758902788366,-0.01545343608536646,-1.0080639968745373,nan,nan,nan
8.22701225100036,1526833.3464812876,-4462985.209182793,4278794.008038181,0.18549854788125278,-1.3378451826125186,-0.7265125480003912,0.9224529376643604,-0.31522769932260464,-0.22224938403921227,0.017812558072993735,0.5056,-0.7928,11.1795133,-0.4555582055400824,0.30525081396859155,-0.9393416575772606,nan,nan,nan
8.29987254200023,1526833.3599690725,-4462985.306458854,4278793.955212727,0.24625394520476748,-1.4163741846864406,-0.7210061922898274,0.9231419459731973,-0.2940284676331914,-0.24425466258120868,0.041180919977334765,-0.8044,-1.9627999999999999,10.6395133,-0.4119249742402242,0.34124822979097463,-0.9131617187973458,nan,nan,nan
8.375914584000384,1526833.3786524518,-4462985.413919695,4278793.900509717,0.4041412460692282,-1.338335775782257,-0.700093423118118,0.9188238381258058,-0.2917184522428786,-0.25716839450261164,0.06728682291857262,0.21560000000000007,-0.2228,10.0395133,0.13130875544301088,0.13726287346413737,-0.7549912553353596,nan,nan,nan
8.450088876000336,1526833.4086823016,-4462985.51336518,4278793.848489042,0.5602285832275059,-1.298496080037884,-0.7523605831774056,0.9227035066950648,-0.2747801913361891,-0.2535393720891328,0.09397804285720132,0.6256,-1.0028,9.6495133,-0.2581178339082239,-0.3568834710067572,-0.7419012859454022,nan,nan,nan
8.526195126000403,1526833.4514375,-4462985.612463047,4278793.791070826,0.6231640536195322,-1.2978383148797552,-0.8643236552102314,0.9220859306392005,-0.2726714112512341,-0.25054061693914914,0.11241546968275493,0.26560000000000006,-2.3328,8.8195133,0.08331220101316683,-0.20634882302224625,-0.43974115919388385,nan,nan,nan
8.60041937599999,1526833.4976812582,-4462985.708773033,4278793.726931097,0.6870770064154155,-1.156935652355644,-0.8705827424357947,0.9192492311892365,-0.2708875689009843,-0.25551469041159125,0.12772243152056184,-0.34439999999999993,-0.07279999999999998,8.7895133,0.06476807771072707,0.02490730286700241,-0.4375594976288909,nan,nan,nan
8.687363417000142,1526833.5502088678,-4462985.797221727,4278793.660374321,0.8075211373199425,-1.047845666431714,-0.9353706388444383,0.9162298493839303,-0.2840546826642896,-0.25211274120963023,0.12757337743784944,0.6956000000000001,-0.49279999999999996,8.7895133,0.3483840811598056,-0.016544266867862915,0.10567423205434416,nan,nan,nan
8.761556251000002,1526833.618450898,-4462985.885773112,4278793.581327979,0.9164484194276574,-1.0170851792282767,-0.9558237015864016,0.9165187132139905,-0.2919958919328339,-0.24240562663813064,0.1263778467684855,0.23560000000000006,-0.9527999999999999,9.7395133,0.1923952792628124,-0.1801688842423313,0.13948998631173432,nan,nan,nan
9.042062459000135,1526833.2910041686,-4462985.076976298,4278794.117413621,0.7575591066943291,0.007578149196046047,0.09918846779970802,0.9186202535598602,-0.2503195615168769,-0.26956340703572096,0.14426543943597386,0.19560000000000005,-0.6628000000000001,9.8095133,-0.08576657027378384,0.2910700137961376,-0.2444824491270182,42.403176,-71.113653,22.3
9.22009962600032,1526833.428755118,-4462985.075598324,4278794.135449581,1.0710210391906867,0.08698798847543876,0.11642922400616917,0.8933373199690413,-0.2652427556524118,-0.3063981291470179,0.1942032449172696,0.33560000000000006,-1.1527999999999998,10.0595133,0.31020500377242965,0.3336124143134994,-0.6022749457858557,nan,nan,nan
9.293759418000263,1526833.507341064,-4462985.0692155985,4278794.143992551,1.1883863061196662,0.1394684861435317,0.11650073365731389,0.887344575874911,-0.25878000788945255,-0.31839400148442704,0.21042283991427282,-0.26439999999999997,-0.45280000000000004,9.8295133,-0.04213333897392561,0.19071358180646372,-0.5673683607459692,nan,nan,nan
9.371275042999969,1526833.5994788327,-4462985.058402351,4278794.1530250665,1.2880957248144733,0.17062816653546042,0.06083468588431873,0.8844685984718209,-0.25132196216143654,-0.3194719667967347,0.22910746963027642,-0.05439999999999992,-1.1428,9.3895133,-0.003954261586549653,-0.11690069885753686,-0.51173599083865,nan,nan,nan
9.444427584000096,1526833.694066761,-4462985.04587272,4278794.157492302,1.4417687738753178,0.19606792326506278,-0.014403296568789414,0.8770505635597071,-0.25054128083111543,-0.324758667721314,0.25008635279783864,0.8556,-0.8228,9.5795133,0.18148697143784784,0.04345142616944216,-0.5946391303083806,nan,nan,nan
9.521536668000408,1526833.8052602941,-4462985.030751374,4278794.156381477,1.5864719622678165,0.22891519654937642,-0.008406886707584993,0.8712448603175443,-0.24617796729437383,-0.32900449006383525,0.26848621540714623,-0.07439999999999994,-0.4228,10.1795133,0.06585890849322353,-0.002363466695408988,-0.5204626370986216,nan,nan,nan
9.600318918000085,1526833.9301418143,-4462985.01273197,4278794.155719716,1.7001240547798395,0.23905723794555622,-0.01431217660919576,0.8651077298905431,-0.24269173701473243,-0.3295033270520219,0.2900291269627848,-0.13439999999999994,-0.9027999999999998,10.0695133,0.13785374013798962,-0.0961749139901042,-0.5510058990085224,nan,nan,nan
9.893363584000326,1526834.4114914911,-4462984.945048601,4278794.151667564,2.439959660143208,0.3998318800079952,-0.24992868534688822,0.835645659548632,-0.19644594039923624,-0.2759443061134709,0.43238878877520653,1.0856000000000001,0.11720000000000001,9.8095133,0.2098485717827557,-0.6001387355034669,-0.9502499654022252,nan,nan,nan
9.967151876000116,1526834.6157123547,-4462984.9115832895,4278794.130748918,2.446837855241142,0.4844082001809204,-0.1533994318356658,0.8259873196155967,-0.18342747589646508,-0.2938928175665604,0.4446642792714813,-0.1643999999999999,-0.49279999999999996,9.9995133,-0.3192043577280254,0.22998348997633614,-0.5150084831861393,nan,nan,nan
10.046575626000049,1526833.262356598,-4462985.003611253,4278794.152646024,0.88214681832209,0.17269401031715076,0.23343465378741035,0.8197393723093002,-0.20683329600225578,-0.2626717386572821,0.46502785660463625,0.20560000000000006,-1.2928,9.8395133,-0.008317584716535476,0.03036145677948469,-0.5608233760509904,42.403176,-71.113655,22.3
10.325359543000104,1526833.511290565,-4462984.954878543,4278794.2185192015,0.8490179822738413,0.3809495571173404,0.3135781299120386,0.7907975554140969,-0.1697892311191202,-0.2949736718100823,0.508725246909064,0.6556000000000001,-0.35279999999999995,9.4495133,-0.19812214087091884,0.05545056477690318,-0.46592109797379877,nan,nan,nan
10.398941626000124,1526833.5737586548,-4462984.926849465,4278794.241591301,0.7361881775675398,0.35355760505383854,0.40507076775888073,0.7792351929725749,-0.1843725498391749,-0.2924521979289508,0.5227532777344056,0.3156000000000001,-2.5828,10.3795133,0.514190360099267,0.17544195085151335,-0.33283974250923115,nan,nan,nan
10.475908834000165,1526833.6304334574,-4462984.899631142,4278794.272775319,0.7558869949698526,0.4354290882912041,0.4823053759461843,0.7748503015363716,-0.1792719299527094,-0.2853329282758972,0.5348398881331411,-0.11439999999999992,0.027200000000000002,9.9095133,0.1062196474455924,-0.23798291571464347,-0.3088414652943091,nan,nan,nan
10.549276126000223,1526833.6859136731,-4462984.867671736,4278794.308175328,0.8076800125892176,0.42321730000728086,0.45437024721512015,0.770080848976971,-0.15341187170080028,-0.3019764024343863,0.5406020131202754,1.9556,0.11720000000000001,9.6695133,-0.7206300856867212,-0.016544266867862915,-0.473556913451274,nan,nan,nan
10.837921043000279,1526833.9107070055,-4462984.749881985,4278794.43463556,0.7946941351425048,0.5760518050526889,0.5780506157816956,0.7400421589827619,-0.2433995365164514,-0.3451626144666431,0.5234090548347484,0.7456,-0.8328,9.6695133,0.32656746550987653,0.6739516184523937,0.12640001692177685,nan,nan,nan
10.911750876000042,1526833.9772748912,-4462984.701628765,4278794.483056211,0.7608297445281638,0.5664978928417908,0.6230763703325554,0.7324684587794048,-0.271295306416535,-0.34331743584522056,0.5215572379049964,-0.8344,-0.5027999999999999,10.1195133,0.5447336220091678,0.38924478422081865,0.17875989448160673,nan,nan,nan
10.987816251000368,1526834.0354076095,-4462984.658344361,4278794.530663607,0.7243957004067834,0.48775828680635536,0.5581654091607502,0.7222907383909366,-0.2802849116442316,-0.3398878680151629,0.5331160242124716,0.4356000000000001,-0.4328,9.9195133,0.39528980480715326,0.06635887260186774,-0.25539075695198277,nan,nan,nan
11.066169001000162,1526833.072026001,-4462984.809334867,4278794.301608519,-0.3688413308970837,0.03535212691120282,0.3976769138015695,0.7063815577450592,-0.3180807182550813,-0.3162805073362564,0.5475549221656764,0.5456000000000001,-0.14279999999999998,9.7295133,0.5305528218367138,0.048905580081924444,-0.3732004814616,42.403178,-71.113656,22.2
11.140807625999969,1526833.0431277899,-4462984.806565076,4278794.332765958,-0.434344141940685,-0.05938580671333982,0.31608344160124485,0.6920980160767823,-0.31763600312381257,-0.31280849253811516,0.5676782127357783,0.48560000000000003,0.44720000000000004,9.8895133,0.3189316500324013,-0.11690069885753686,-0.5379159296185648,nan,nan,nan
11.212968876000105,1526833.0117860776,-4462984.810850279,4278794.355574131,-0.6028220780879283,-0.15827472453977914,0.30196281957221954,0.6762996039489246,-0.3046761667907968,-0.32123060312679363,0.5887292920007762,-0.26439999999999997,-0.7127999999999999,10.3995133,-0.059586631493868905,-0.09072076007762192,-0.8389852255875867,nan,nan,nan
11.289321251000274,1526832.9656465533,-4462984.822964502,4278794.378686126,-0.7078844001852114,-0.2989801232462264,0.3082749971608842,0.6575849865653821,-0.28561023121849194,-0.3369266916284178,0.6103189217877808,0.005600000000000077,0.13720000000000002,11.0095133,-0.2483003568657558,-0.030725067040316845,-0.9546132885322111,nan,nan,nan
11.363735626000107,1526832.9129112298,-4462984.845237649,4278794.401651715,-0.8730982552151006,-0.42326289960178026,0.3074626350592822,0.6374150114004373,-0.2697115535789994,-0.35163412159714597,0.6303262855003993,-0.02439999999999995,-0.8928,10.7395133,-0.18612300226345782,0.02817979521449178,-0.9404324883597571,nan,nan,nan
11.440519251000296,1526832.8463200992,-4462984.877519875,4278794.425101864,-1.039399622326708,-0.5030698879846465,0.21103060122043604,0.6149486490573224,-0.25430272128473025,-0.359470822779107,0.6541781203135817,0.6256,-0.8428,9.4795133,-0.008317584716535476,-0.08526660616513963,-0.9677032579221685,nan,nan,nan
11.514551334000316,1526832.7691983788,-4462984.914846823,4278794.440759983,-1.0645850364654308,-0.506358135422428,0.16306169882828392,0.6136532810077058,-0.2526008725814054,-0.3581621332693873,0.6567665770486925,-0.5644,0.9372,9.2695133,0.028770661888344026,-0.05690500582023179,-0.07322201627507462,nan,nan,nan
11.590656584000044,1526832.6877128226,-4462984.953604529,4278794.453241065,-1.1141388167050126,-0.5302651100301539,0.046921934862061476,0.6320412427953854,-0.25307618410045,-0.3552871639003282,0.6405055379707698,0.3456000000000001,0.7872000000000001,8.9095133,-0.21666626417335857,-0.10271989868508294,0.5998205765252387,nan,nan,nan
11.675435668000318,1526832.6051802044,-4462984.992885242,4278794.456716925,-1.2141053134030488,-0.5036102625328829,-0.07981797994833978,0.6408000623653454,-0.2569005716111099,-0.3572500160569521,0.6290864828960373,0.22560000000000008,-0.012799999999999978,8.1895133,-0.13812644783361375,0.09362964216427914,0.36965528141848647,nan,nan,nan
11.751385834000303,1526832.5004022578,-4462985.036347081,4278794.44982859,-1.3865952969941244,-0.5296617588889844,-0.12869274874506148,0.6403806775501025,-0.2698106073661056,-0.36320165888140327,0.6206443260964735,-0.2844,-0.9327999999999999,9.3195133,0.03749730814831567,0.33033992196601003,0.19075903308906775,nan,nan,nan
11.825885293000283,1526832.3969557206,-4462985.075862342,4278794.440227506,-1.6281942340559492,-0.6393138389182628,-0.12793145152933943,0.6282509176863436,-0.2763580076926169,-0.3702550361150283,0.6259698433619929,-0.2844,-2.2828,10.4195133,0.13458124779050024,0.3096141370985774,-0.28047986494940125,nan,nan,nan
11.900252918000206,1526832.2757121685,-4462985.123468873,4278794.430701084,-1.8447788280988597,-0.7770117266440744,-0.1402430575655662,0.616702822235318,-0.2793670874177602,-0.3747089830029547,0.6334231114573788,-0.13439999999999994,-1.8627999999999998,10.6795133,0.1356720785729967,0.18525942789398145,-0.32302226546676305,nan,nan,nan
11.974499293000008,1526832.1389624812,-4462985.181067166,4278794.420305153,-1.883775652533854,-0.9021766872562356,-0.12380657217000118,0.6153303131503302,-0.283298772675607,-0.3750025747713852,0.6328376415719813,-0.8444,0.5572,11.0395133,0.06476807771072707,0.09035714981678977,0.023861923367109975,nan,nan,nan
12.051069876000383,1526831.9943890576,-4462985.250306182,4278794.410803417,-2.028066082236917,-1.0468118058458815,-0.23785781395785704,0.6131015411422517,-0.28144401242450745,-0.37500845400759536,0.6358179205550651,0.7056000000000001,-0.5227999999999999,10.0995133,0.015680692498386554,-0.030725067040316845,-0.10267444740247893,nan,nan,nan
12.128733376000127,1526832.8225305532,-4462984.79154326,4278794.192302795,-1.0787987033228763,-0.7200525315626758,-0.2590100949793012,0.6277566640910408,-0.27459234752914025,-0.3805352965587973,0.6210583724557432,-1.8643999999999998,-0.5428,9.5595133,0.29057004968749345,0.07508551886183938,0.046769369799535554,42.403178,-71.113656,22.2
12.203193126000315,1526832.7382578105,-4462984.847791754,4278794.172069649,-1.0233230332884369,-0.6873527377197037,-0.3224351696072197,0.6325685959566605,-0.26155896642529103,-0.38094202674824895,0.6215521308029068,-1.2644,1.7772000000000001,8.9195133,-0.24502786451826644,-0.25107288510460096,-0.06122287766761359,nan,nan,nan
12.27784691800025,1526832.661940851,-4462984.89905286,4278794.148023213,-1.149736248452181,-0.7577819198544788,-0.4200564555355779,0.6358516835615491,-0.2462527310880995,-0.3908732603247305,0.6182801338094699,0.25560000000000005,-0.8228,9.4095133,-0.48173814431999734,-0.09726574477260065,-0.11576441679243639,nan,nan,nan
12.353649001000122,1526832.5747212844,-4462984.956538576,4278794.116157521,-1.1866107969333095,-0.8048180506838195,-0.41437007604428255,0.632963894608598,-0.24832483266848848,-0.3922473080500748,0.6195430053566073,-1.0544,-0.1728,10.1395133,0.04404229284329441,0.07835801120932875,-0.05576872375513131,nan,nan,nan
12.42857154300009,1526832.485869006,-4462985.016802579,4278794.085129887,-1.2190481929956518,-0.8859762644772357,-0.47394498612002484,0.6362324418356832,-0.23613533046217705,-0.39151131045664084,0.6214235914451518,-0.14439999999999995,0.007200000000000012,10.0195133,-0.19594047930592592,-0.26089036214706907,-0.10049278583748601,nan,nan,nan
12.503170251000029,1526832.3948962644,-4462985.082919481,4278794.049761249,-1.2513952972274172,-0.9871312559998974,-0.5850865916818655,0.6326912592886725,-0.24020635687236577,-0.38399722279917375,0.6281312044287289,0.7656000000000001,-0.042800000000000005,9.8295133,0.2872975573400041,-0.06563165208020343,-0.08303949331754272,nan,nan,nan
12.577185418000226,1526832.302226219,-4462985.156019882,4278794.006433612,-1.2670298370365431,-1.0410137529776928,-0.6026920548775165,0.6286174052150748,-0.24515542107256263,-0.37505726992904254,0.6356658101624774,-0.5743999999999999,0.2272,10.1095133,0.34074826568233046,-0.07544912912267153,-0.088493647230025,nan,nan,nan
12.663681126000029,1526832.2055838883,-4462985.235422903,4278793.960463451,-1.3405798306492709,-1.1659034335871206,-0.6995832281939172,0.6227664891651602,-0.24411843911218156,-0.36619587785448,0.6468915421130992,0.9156000000000001,-0.1528,10.0795133,0.27857091108003246,-0.1779872226773384,-0.23575580286704653,nan,nan,nan
12.74385604300005,1526832.0844996455,-4462985.340729973,4278793.897275491,-1.4334362768772426,-1.267910486597792,-0.7071827294475819,0.6216924953860685,-0.24155429756793462,-0.3671934571738998,0.6483200814971942,-0.17439999999999992,-0.1628,10.3895133,-0.03231586193145751,-0.021998420780345196,-0.06122287766761359,nan,nan,nan
12.818338835000304,1526831.9777112703,-4462985.43518698,4278793.844591673,-1.5294286385136904,-1.3349374540251606,-0.8183630365167273,0.6174449891742682,-0.23492232634702817,-0.364277274266128,0.656410888039856,0.8156,-0.19279999999999997,9.3095133,0.047314785190783776,-0.17471473032984902,-0.25539075695198277,nan,nan,nan
12.897642501000064,1526831.8575645825,-4462985.540055105,4278793.780303869,-1.6321608425016731,-1.382045430818474,-0.9527060413055527,0.6135085162781465,-0.22501077537118302,-0.37943341198375796,0.6549868226522988,0.9156000000000001,-0.11280000000000001,8.9295133,-0.3988350048502667,0.11762791937920117,-0.22593832582457843,nan,nan,nan
12.971058585000264,1526831.7365533214,-4462985.642522372,4278793.709668577,-1.7638125594056508,-1.4535160689934519,-0.9838687642140388,0.6061628792252928,-0.22051435532451988,-0.3935926075070889,0.6549998800134461,0.15560000000000007,-1.1328,9.9195133,-0.279934449558153,0.22998348997633614,-0.2619357416469615,nan,nan,nan
13.047770418000255,1526831.6011804128,-4462985.754079973,4278793.634156485,-1.7677919496709056,-1.5219122489916803,-1.094231554126025,0.5996003462821182,-0.22375747264013437,-0.3968990926857304,0.6579385449706158,0.45560000000000006,0.5871999999999999,9.5595133,0.06258641614573417,0.15798865833157005,-0.14412601713734424,nan,nan,nan
13.121805001000212,1526831.4706494554,-4462985.866455563,4278793.55336016,-1.8860093618478095,-1.5432219800671634,-1.2110443683549192,0.5999422405927078,-0.2196659173785724,-0.40384782354799353,0.6547695233187965,0.3556000000000001,-0.8028,8.7195133,-0.22648374121582668,0.05545056477690318,-0.028497954192719912,nan,nan,nan
13.202159626000139,1526832.7234386345,-4462984.724251073,4278794.277952064,-0.39461257788302384,-0.41848640930912673,-0.27972080322976245,0.6189028849157627,-0.18016510646351874,-0.39925905167399,0.6519907696195282,0.36560000000000004,-0.06279999999999997,9.1795133,0.22621103352020255,0.37942730717835055,-0.027407123410223454,42.40318,-71.113656,22.2
13.276737710000361,1526832.692554807,-4462984.757003354,4278794.256060088,-0.3709818019894514,-0.49417066396411224,-0.2699838216846321,0.6138723852371787,-0.19364013764612337,-0.39895109742858403,0.6530713698768912,-0.17439999999999992,-0.1528,10.6495133,0.25239097230011753,0.26598090579871914,0.0380427235395639,nan,nan,nan
13.351202126000317,1526832.664837814,-4462984.7939241,4278794.2358889105,-0.31963324808298155,-0.6200965646512536,-0.25594008028309817,0.6122904573806274,-0.19450664790302005,-0.39417394247317644,0.6571867796555627,-0.04439999999999991,0.3572,11.3195133,0.1498528787454506,-0.06781331364519634,-0.06122287766761359,nan,nan,nan
13.42337283500001,1526832.6418872408,-4462984.838448791,4278794.217511687,-0.38760921605024506,-0.6913371459495314,-0.2775561865613221,0.6062934207651896,-0.17349345435942978,-0.3997942222583674,0.6651863570736007,0.20560000000000006,-0.9027999999999998,10.1195133,-0.3410209733779545,-0.26634451605955134,-0.5073726677086641,nan,nan,nan
13.500134918000185,1526832.612136231,-4462984.891512488,4278794.196207817,-0.33448386827555765,-0.6775813384849373,-0.22957323846450606,0.611001616346811,-0.17418668203768742,-0.3972108217134211,0.6622383168412848,-1.3444,0.17720000000000002,10.2095133,0.003681553890925539,-0.06454082129770698,0.1471258017892095,nan,nan,nan
13.573543210000025,1526832.5874322979,-4462984.941556528,4278794.179252255,-0.3303161999890707,-0.579471865713892,-0.20772106219785402,0.6201530880176238,-0.1501569937678761,-0.39585038952683443,0.660428265834372,-1.7044,-0.2328,8.9995133,-0.4359232514551462,-0.5434155348136511,-0.05795038532012422,nan,nan,nan
13.661147835000065,1526832.5620613433,-4462984.986064652,4278794.163297598,-0.29996650473366454,-0.5479353349962783,-0.26147366836963964,0.6312000229074551,-0.12092660275790533,-0.4032687327571951,0.6514120182835199,-0.07439999999999994,0.04720000000000002,9.1595133,-0.7359017166416716,-0.46160322612641697,0.005317800064670222,nan,nan,nan
13.734539335000136,1526832.536833298,-4462985.032147589,4278794.141306911,-0.272426250649487,-0.5318506278253321,-0.3398552840736404,0.6325094187920518,-0.11925788856675425,-0.4100500877938924,0.6461952624485142,0.5756000000000001,-0.47279999999999994,9.1195133,-0.1839413406984649,0.07835801120932875,0.06313183153698239,nan,nan,nan
13.810813085000063,1526832.5161471784,-4462985.072532558,4278794.115500708,-0.2788143262574382,-0.540686264053669,-0.34303210901681175,0.6315677653939308,-0.12236064850353581,-0.4191058252951385,0.640703002313501,0.20560000000000006,-1.3728,9.7395133,-0.15885223270104643,0.23107432075883258,0.08058512405692568,nan,nan,nan
13.885557293000147,1526832.4952762763,-4462985.113006124,4278794.089822725,-0.23051462297916275,-0.5888029059238995,-0.3934183287559065,0.6241587630056353,-0.13788724827546758,-0.41740583030843825,0.6458988455691497,0.7056000000000001,-0.6628000000000001,9.9695133,0.3734731891572241,0.30306915240359866,-0.035042938887698646,nan,nan,nan
13.961476626000149,1526832.4777743958,-4462985.157711132,4278794.05995234,-0.13824398812620017,-0.6039229086612214,-0.398484306573572,0.6236214916705906,-0.15257342783755842,-0.40968050028828457,0.6480582323254047,-0.35439999999999994,-0.022799999999999987,10.2495133,0.3985622971546426,0.12090041172669054,0.1449441402242166,nan,nan,nan
14.036297210000157,1526832.4674395863,-4462985.202859051,4278794.03016255,-0.1408640439917171,-0.6901408031246556,-0.4299545202583097,0.6227175075745286,-0.14662949009810763,-0.4001213867809716,0.6562206753760129,0.6756000000000001,-0.8628,10.3195133,0.15967035578791872,-0.28597947014448755,-0.17794177139473438,nan,nan,nan
14.316386210000019,1526832.8798925,-4462984.6305773705,4278794.28795876,0.7282045618824451,-0.1270310279630631,-0.12235938054825646,0.6031924529900949,-0.1136683316369206,-0.444851960917991,0.6521848729178191,0.6356,0.4772,9.9795133,-0.2635719878207062,0.31506829101105965,-0.24011912599703236,42.40318,-71.113655,22.2
14.394247418000305,1526832.9391992693,-4462984.640923089,4278794.277993511,0.776160803795587,-0.12482825628807781,-0.12338777481819097,0.5937071209175816,-0.10713855065993233,-0.4556579078208213,0.6545296457238124,-0.5644,-1.1627999999999998,9.8495133,-0.21775709495585505,0.15253450441908775,-0.28811568042687646,nan,nan,nan
14.46792537600004,1526832.9963775803,-4462984.650118953,4278794.268903766,0.7754783897507367,-0.15749846623767727,-0.19787043457925674,0.5855060854257264,-0.10526162198245062,-0.4585356174530574,0.6601876270809319,0.5056,-1.4627999999999999,9.3595133,0.012408200150897188,0.09799296529426496,-0.26848072634194026,nan,nan,nan
14.544836293000117,1526833.0560290585,-4462984.662234076,4278794.253683143,0.8184883417909432,-0.16763633323175098,-0.2444405688091713,0.5787747098309227,-0.11609929271750066,-0.460577913551136,0.6628791561033219,-0.18439999999999993,-1.1128,9.5895133,0.1803961406553514,0.2899791830136412,-0.03286127732270573,nan,nan,nan
14.618407085000399,1526833.1162418015,-4462984.674566376,4278794.235700679,0.8775092984418795,-0.18239089827071198,-0.3092869995629019,0.5810365152322698,-0.12383824926669765,-0.4604057943274507,0.6596113712571603,-0.23439999999999991,-0.6428,9.5895133,0.07676721631818809,0.11871875016169763,0.18966820230657128,nan,nan,nan
15.001610752000033,1526833.443478401,-4462984.7425827235,4278794.120362841,1.6501483726971795,0.34222204649646304,-0.36810697228521677,0.5607644585354797,-0.14051679409055098,-0.47227045088044306,0.6654012882493162,-2.2544,0.3572,9.2495133,0.03771547430481494,0.1421716119853714,-0.056423222224629185,nan,nan,nan
15.07658637700024,1526833.5841433734,-4462984.7134104045,4278794.088983991,1.580804705505988,0.353853137585029,-0.3552856136990172,0.5485983822066515,-0.13914295779528318,-0.4727800599269648,0.6753947496304833,-1.2344,-2.3428,9.2795133,0.12476377074803215,0.0870846574693004,-0.3382938964217134,nan,nan,nan
15.15739191800003,1526833.711889256,-4462984.684815297,4278794.060273124,1.5585884185964372,0.3589828091350248,-0.4313385267149182,0.5304611732656679,-0.12550523763024063,-0.4716711010718624,0.6930986596115938,-0.6144,-1.2828,8.9695133,0.10294715509810304,-0.09181159086011838,-0.6993588854280404,nan,nan,nan
15.23664191800026,1526833.8353217314,-4462984.656385638,4278794.026113251,1.5111168455796584,0.34839296144547716,-0.4822441656835059,0.5148883274653355,-0.11259881815796996,-0.4648469407176807,0.7114273249261192,-0.4244,-1.6727999999999998,9.1895133,0.21421189491274154,-0.1899863612847994,-0.6502715002156998,nan,nan,nan
15.4203123770003,1526833.1323951413,-4462984.4636135325,4278794.243703066,0.2334350469183497,0.20763602940426074,0.11400396855582173,0.45905336725207446,-0.08842436440504767,-0.4510014165650165,0.7602952456823512,-0.20439999999999994,-3.0128000000000004,10.5795133,-0.01813506175900358,-0.09508408320760774,-0.8629835028025088,42.40318,-71.113653,22.2
15.492753835000258,1526833.1502086865,-4462984.447768724,4278794.252402767,0.18044459249422137,0.1799562967984396,0.16534116293011236,0.43813084432109056,-0.07131389786099465,-0.4535685576921128,0.7728073856118349,-0.4643999999999999,-1.8827999999999998,10.1995133,-0.06067746227636536,-0.09181159086011838,-0.7757170402027923,nan,nan,nan
15.56890470999997,1526833.1638930028,-4462984.434121438,4278794.26494169,0.05657944576791746,0.17134025891466687,0.20011946494324473,0.4250816152340367,-0.03962627556812399,-0.4593696520529201,0.7789190599825783,0.24560000000000007,-2.5628,9.6095133,-0.3868358662428057,-0.4343324565640056,-0.7266296549904517,nan,nan,nan
15.656906960000015,1526833.168133486,-4462984.421279929,4278794.279940126,-0.0575962769882922,0.18928428832870264,0.17360648021766695,0.41133682546686,-0.022225343187109746,-0.45953328427340123,0.7868527253156753,0.7856000000000001,-2.2628000000000004,8.8195133,-0.08903906262127322,-0.1998038383272675,-0.5891849763958983,nan,nan,nan
15.832479752000381,1526833.15725581,-4462984.385531556,4278794.312727576,-0.19527115182337149,0.17453885268863417,0.14632392672421451,0.3848270621694176,-0.029301561259606427,-0.43968671265938364,0.8110025560979031,0.6056,-1.8227999999999998,9.4195133,0.32002248081489776,0.09581130372927205,-0.28702484964438,nan,nan,nan
15.911726960000124,1526833.141813865,-4462984.37172911,4278794.324298799,-0.3026205448023921,0.13051985121598947,0.23297427232856355,0.3885913871699926,-0.038961399772877756,-0.43065419566471513,0.8136434768731077,0.7656000000000001,-2.3328,10.4495133,0.3058416806424439,0.06635887260186774,0.16566992509164927,nan,nan,nan
15.985389252000004,1526833.119553085,-4462984.362128065,4278794.341436396,-0.2865817067831913,-0.006192014853815764,0.25641372869541673,0.4111779680255698,-0.0599220649820418,-0.4212537367188703,0.8061558872797391,0.6756000000000001,-0.0928,11.3995133,0.31784081924990487,0.10781044233673306,0.8343491947619768,nan,nan,nan
16.062447793000047,1526833.0975378545,-4462984.362603736,4278794.36113412,-0.5158419768996544,0.010469312372776096,0.3877489322561111,0.4218099704449861,-0.03231474643346678,-0.4305615805083309,0.7972758819524467,0.7956000000000001,-3.6628000000000003,9.9795133,-0.6050020227420969,-0.5826854429835235,0.000954476934684399,nan,nan,nan
16.13616416800005,1526833.059352695,-4462984.361828746,4278794.389837203,-0.6231461404710358,0.10130353371736489,0.47052768366929754,0.4226008175306699,-0.048684644932086636,-0.4359853201008621,0.7930669300781226,-0.15439999999999995,-2.9328000000000003,9.1395133,0.02004401562837238,0.40887973830575486,0.2507547261263728,nan,nan,nan
16.21263379300035,1526833.0115671228,-4462984.354060348,4278794.425919324,-0.6969557532496323,0.21419415409510079,0.5329695028395646,0.41967875141334393,-0.05920984262952071,-0.436432975384602,0.7936562219888472,-0.8144,-2.4328000000000003,8.9095133,0.11712795527055696,0.2550725979737546,0.052223523712017834,nan,nan,nan
16.286935418000212,1526832.960104317,-4462984.338244377,4278794.465273481,-0.710855098107258,0.29916215894280707,0.4467206436910993,0.4218582003209477,-0.05912008067925422,-0.4316732588922631,0.7951092207970714,-0.38439999999999996,-0.4328,8.149513299999999,0.11494629370556404,-0.08417577538264319,0.03695189275706745,nan,nan,nan
16.363819002000128,1526832.9053807957,-4462984.315214076,4278794.499663227,-0.8247009978660198,0.37658778423628764,0.36379596242743445,0.42420466424494435,-0.08851367217266184,-0.4209073850051406,0.7969019428237217,0.5356000000000001,-1.3128,7.9695133,0.5610960837466146,0.4601487850830883,0.3751094353309688,nan,nan,nan
16.441000293000343,1526833.2429114366,-4462984.310726107,4278794.237819295,-0.40841837930487873,0.3210735382686766,0.05356102758751202,0.42905936505248277,-0.1121843306600673,-0.4038330375354133,0.8001509954794644,-0.20439999999999994,-0.2628,8.9395133,1.0345166433500763,0.3216132757060384,0.34674783498606093,42.40318,-71.11365,22.2
16.516106627000227,1526833.2106760293,-4462984.285384602,4278794.242046729,-0.314052932327663,0.21801603399097025,0.21715745413890164,0.4065489216269122,-0.11331973814234851,-0.4044165778795519,0.8113715815606806,-1.8544,0.4672,12.2795133,0.17930530987285492,0.22780182841134322,-0.5684591915284657,nan,nan,nan
16.58834704300034,1526833.1880979524,-4462984.269710866,4278794.25765874,-0.3674354082874691,0.09667691224699715,0.32149009834548903,0.3960051780238038,-0.11227984611173375,-0.4008613759897308,0.8184639838941136,-0.3144,-0.4228,11.8395133,0.18148697143784784,0.0325431183444776,-0.3186589423367772,nan,nan,nan
16.674895585000286,1526833.1598807042,-4462984.26228655,4278794.282347612,-0.5678817680749286,0.03298172509331554,0.5134991984650965,0.3743312611491888,-0.07670890483918012,-0.4014857743695779,0.832346697224441,-0.10439999999999991,-2.5628,11.6395133,-0.1719422020910039,-0.5663229812460767,-0.978611565747133,nan,nan,nan
16.74867929300035,1526833.112196666,-4462984.259517132,4278794.325465241,-0.7257104227769928,-0.05147197520499791,0.5029058724281311,0.3383975376267617,-0.07375078918614685,-0.40455494271039083,0.8463942500442099,1.3056,-0.5227999999999999,10.0995133,0.11276463214057114,0.28670669066615184,-0.8717101490624803,nan,nan,nan
16.82315866800036,1526833.0581552787,-4462984.263350089,4278794.36291507,-0.7771472813826393,0.028621080025094947,0.42927722923330003,0.2997451697486187,-0.08944944504619468,-0.40031156672031587,0.8613374948880194,-0.5344,0.03720000000000001,8.209513300000001,0.4781929442768839,0.7088582034922802,-0.8357127332400973,nan,nan,nan
16.897245710000334,1526833.0005355391,-4462984.261228047,4278794.39474281,-0.8015192156463629,-0.004871002274943026,0.2441551226406517,0.24538989477124792,-0.09422147368576336,-0.39822142721790144,0.8788206921220731,0.005600000000000077,2.2172,8.3295133,0.40728894341461425,0.6390450334125071,-1.3484032010134317,nan,nan,nan
16.973700502000156,1526832.9393133647,-4462984.261600108,4278794.41339203,-0.8161232345980038,0.013728099797348403,0.262413565188193,0.21322518724758246,-0.07584705711087221,-0.4156659405438585,0.88091093186507,-1.9744000000000002,0.32720000000000005,9.5495133,-0.4184699589352029,0.01945314895452013,-0.9884290427896012,nan,nan,nan
17.04820900200002,1526832.8785499972,-4462984.260578001,4278794.432929682,-0.9307572743879355,0.010120778425973531,0.33525925587788874,0.20944479965515234,-0.06560626251316312,-0.3921605415094381,0.8933301766179368,-0.9243999999999999,-1.0728,10.1895133,0.6439992232163452,-0.36015596335424654,-0.2270291566070749,nan,nan,nan
17.1244931680003,1526832.8074726015,-4462984.259805126,4278794.458531797,-1.1088730017450112,-0.027892411829396224,0.46683734022212575,0.21161231874795053,-0.04494098884368254,-0.33213183262144097,0.9180898542038975,0.015600000000000058,-1.1627999999999998,11.0495133,1.542843787993425,-0.8783005850400631,-0.1943042331321812,nan,nan,nan
17.199001043000408,1526832.7248995884,-4462984.261882154,4278794.49329517,-1.225564950904591,-0.2278923204941174,0.6091662811184384,0.2097853982984521,0.002945317215032343,-0.2880589555716359,0.9343465365906718,0.8156,1.8672,12.6495133,0.9625218117053104,-1.435715114895752,-0.51173599083865,nan,nan,nan
17.275313085000107,1526832.6313898503,-4462984.279270177,4278794.539774126,-1.3298989509594799,-0.2994419000813607,0.5945265211971338,0.20572885617325534,-0.010487619066695824,-0.2643750656577528,0.9421631879877059,1.4356,2.7272,9.6595133,0.712721562513622,0.22998348997633614,-0.042678754365173835,nan,nan,nan
17.34967137700005,1526832.5327091313,-4462984.301489265,4278794.583888985,-1.3729188793403935,-0.11860340160851224,0.5349663768535514,0.17204346860713784,-0.010037308819060044,-0.2967194539033039,0.9392858263454011,-0.6744,1.2472,7.3695133,-0.8351673178488491,0.40887973830575486,-0.8520751949775441,nan,nan,nan
17.425841377000324,1526832.4278654384,-4462984.310546477,4278794.624741982,-1.5776569443441493,0.021438859722420323,0.5246458127816548,0.14468758907472837,-0.008903813569340257,-0.3191940968329766,0.9365368934406095,1.1256000000000002,0.13720000000000002,8.119513300000001,-0.5722770992672032,0.28670669066615184,-0.6753606082131183,nan,nan,nan
17.504505752000114,1526834.4825404382,-4462985.959943514,4278792.248510908,0.7408937592616782,-2.1101077036566904,-2.2901107382435475,0.22043365886105984,0.008879931857733055,-0.42780952418957424,0.8765324639856531,1.1356000000000002,3.8571999999999997,8.2195133,-0.38574503546030925,0.20162188963142827,-0.4026529125890043,42.403153,-71.113641,22.2
17.578665835000265,1526834.540348458,-4462986.124584054,4278792.069825685,0.7427388792675499,-2.0550358946423124,-2.270107988239497,0.1947460350347823,0.018704856833705187,-0.44273340809193334,0.8750492786609824,-0.9043999999999999,-0.9827999999999999,9.4195133,-0.4130158050227206,0.14489868894161256,-0.6731789466481254,nan,nan,nan
17.663741169000332,1526834.5957665886,-4462986.277916875,4278791.900445645,0.8027512188086561,-2.1878599673849526,-2.3726708740412077,0.19404574278751657,0.020225262099686375,-0.41400415545684627,0.8891218973235591,-0.5544,1.5172,10.4495133,0.8327129485882321,-0.1703514071998632,-0.12230940148741513,nan,nan,nan
17.73955779400012,1526834.6649502646,-4462986.466473668,4278791.695961255,0.8110043885835054,-2.462412884453877,-2.409266818512857,0.16338190620947857,0.010399565856514682,-0.3822904218091184,0.9094241231147885,0.6056,2.0372,11.8495133,0.8796186722355797,0.36415567622340017,-0.6448173463032175,nan,nan,nan
17.819965502000287,1526834.730560621,-4462986.665683178,4278791.501051268,0.738731272565816,-2.6726906006191467,-2.4978009812978623,0.13167951679735845,0.027762493418483223,-0.3601148915062155,0.9231505913378443,0.9256000000000001,2.7472,10.6495133,0.55018777592165,-0.17689639189484194,-0.9382508267947642,nan,nan,nan
17.894348544000422,1526834.785271336,-4462986.863623646,4278791.31606319,0.7307954501281906,-2.8789690821588803,-2.606924018800024,0.11292028277945006,0.03589491020717044,-0.3617800385303634,0.9247030709562607,0.15560000000000007,3.8472,10.4595133,-0.06940410853633701,-0.013271774520373548,-0.5510058990085224,nan,nan,nan
17.971109335000165,1526834.841241498,-4462987.084118131,4278791.116404093,0.7928259188254547,-2.8014849203331007,-2.6631035841214903,0.08733308297973376,0.05587320835830374,-0.4100732584498267,0.9061407398776904,-1.7843999999999998,0.7572000000000001,8.6495133,-1.4253067711794318,-0.1158098680750404,-0.7069947009055155,nan,nan,nan
18.0448685020001,1526834.8998222484,-4462987.291115764,4278790.919631255,0.8311928633191414,-2.6665858727296317,-2.848131994871883,0.06743842994496321,0.06832799973849424,-0.44274866562754744,0.891491425791669,-1.6543999999999999,0.4872,6.8795133,-1.0238810432207361,-0.029634236257820388,-0.5422792527485507,nan,nan,nan
18.12141096000005,1526834.963729135,-4462987.496138219,4278790.70065049,0.9058394557428342,-2.693229377403524,-3.0117678483857495,0.06068746187829222,0.07647179702861934,-0.4542442434928449,0.8855118655559279,-1.6743999999999999,0.9272,8.8995133,-0.3617467582453872,-0.10162906790258648,-0.2193933411295997,nan,nan,nan
18.195570085000327,1526835.0308635775,-4462987.695741417,4278790.477439463,0.8715224362688623,-2.764249501177825,-3.059805734239167,0.07980946633103721,0.08746786868878562,-0.44772309454766174,0.8862978349270656,0.015600000000000058,-0.25279999999999997,9.9995133,0.18694112535033014,-0.5063272882087717,0.3074779268161885,nan,nan,nan
18.27264291900019,1526835.0976700932,-4462987.907634846,4278790.242890183,0.9730115200314098,-2.9227510194028428,-3.1258814109120827,0.09747558207135737,0.06335254393352292,-0.4433090712959051,0.888798083897859,-1.1244,0.8171999999999999,11.1395133,0.22184771039021672,0.34779321448595335,0.6750879005174941,nan,nan,nan
18.346411877000264,1526835.1696060512,-4462988.123717482,4278790.011789863,0.9458081871134371,-3.2003568282370742,-3.1491942763047565,0.11926437549048145,0.0762862583097783,-0.44969027011659957,0.8818928943194639,0.6756000000000001,1.4272,12.3895133,-0.23302872591080542,-0.5674138120285732,0.39801688176339434,nan,nan,nan
18.423089334999986,1526835.242234307,-4462988.369471683,4278789.769964416,0.8246601983806023,-3.3479132851471967,-3.0260117059700713,0.13856965170144836,0.04540115455226998,-0.4486477212236591,0.8817326179688604,1.9356,-1.5828,11.7795133,0.15639786344042936,0.4797837391680245,0.803805932852076,nan,nan,nan
18.49650154400024,1526835.302893425,-4462988.615732467,4278789.547381585,0.9541103318540367,-3.31886997664544,-3.204196576802857,0.12820992756367547,0.015707358925110396,-0.4446103113197058,0.8863617573962965,-2.2744,1.0772,8.3495133,0.25239097230011753,0.8288495895668905,0.09149343188189024,nan,nan,nan
18.577421044000403,1526835.8937558501,-4462987.885455951,4278789.865042373,1.5646118866028322,-2.3607248345141993,-2.5251418833314663,0.11684382826242186,0.04520034094021942,-0.4360884494913152,0.8911404568040171,-1.0644,-0.002799999999999997,8.3495133,-0.6399086077819834,0.10344711920674725,0.07949429327442922,42.403126,-71.113633,22.2
18.662402960000236,1526836.0161830143,-4462988.070177062,4278789.667456018,1.5790743347540563,-2.2262071863074855,-2.6909816908304576,0.1170303916054043,0.050465063044235925,-0.43521002673137527,0.8912628108710947,-1.2744,-0.07279999999999998,7.1595133,0.005863215455918451,-0.12453651433501206,-0.05576872375513131,nan,nan,nan
18.7378184600002,1526836.1520220945,-4462988.261685423,4278789.435965664,1.6026378162591504,-2.2036131900733196,-2.788393025409382,0.11458099657522694,0.07882159789820828,-0.42648428176647396,0.893739060851364,-0.9343999999999999,0.027200000000000002,8.9095133,0.1258546015305286,-0.58377627376602,-0.35465635815916025,nan,nan,nan
18.815479502000017,1526836.2758981176,-4462988.432013887,4278789.2204365935,1.6566546488149347,-2.2448265552162736,-2.901784039168354,0.11641661436691972,0.07584274073793508,-0.4082381636337534,0.9022397978843458,-0.6943999999999999,0.9072,9.4295133,0.5283711602717208,0.01181733347704494,0.012953615542145415,nan,nan,nan
18.888656294000157,1526836.397370595,-4462988.596613457,4278789.0076663,1.6421316003064692,-2.327587350813297,-2.863257079969368,0.1179553438903198,0.08864708380041782,-0.4180823293545065,0.8963455794612087,0.40560000000000007,0.03720000000000001,10.9095133,-0.34538429650794034,-0.31325023970689897,-0.06558620079759941,nan,nan,nan
18.965541960000337,1526836.5240523578,-4462988.776174504,4278788.786781169,1.6896004626332304,-2.6001203748035704,-2.9243728675266016,0.12056551551622788,0.10554993601758225,-0.41016907376576994,0.8978220864725165,0.48560000000000003,2.3872,12.0195133,0.15421620187543644,-0.44196827204148076,-0.14521684791984069,nan,nan,nan
19.039535919000173,1526836.6485699983,-4462988.967794276,4278788.571265124,1.6069376874398462,-2.660521370088639,-2.7686931816610914,0.12350773031613319,0.12207608000528672,-0.43686692355384804,0.8826044203968381,1.9556,-1.6228,11.3995133,-0.8657105797587499,-0.3917900560466438,0.014044446324641871,nan,nan,nan
19.1163862100002,1526836.7724137404,-4462989.172835781,4278788.357887016,1.6803115231167183,-2.6221650587698675,-2.7979694901747076,0.13718899792699685,0.1272545760728129,-0.4496837019452156,0.8733670594188354,-0.36439999999999995,-0.8928,9.4395133,-0.3715642352878553,-0.2619811929295655,0.3249312193361318,nan,nan,nan
19.18974033500035,1526836.8957985248,-4462989.365380595,4278788.152432933,1.6572375469409635,-2.6141073500031404,-2.8701711629100273,0.12486024411789247,0.13740290096885366,-0.45688875201301354,0.8699327738882451,1.0556,-0.6028,8.9295133,-0.29411524973060693,-0.07544912912267153,-0.3797454661565787,nan,nan,nan
19.26709212700007,1526837.0238717068,-4462989.567401752,4278787.930622877,1.713366705583672,-2.5695606810093627,-3.0201709459446615,0.10039780948379545,0.1316100146558399,-0.4520919371374478,0.8764770189943356,-0.12439999999999993,-0.13279999999999997,8.399513299999999,0.11712795527055696,0.4274238616081946,-0.5204626370986216,nan,nan,nan
19.340397252000002,1526837.149627755,-4462989.755999905,4278787.708951263,1.7318123635489542,-2.7004931830744296,-3.1531024472467677,0.09652903921682388,0.1223888521552273,-0.45641792402828896,0.876005589387677,0.7656000000000001,1.1472,10.1195133,-0.09776570888124486,0.2779800444061802,0.0380427235395639,nan,nan,nan
19.417556502000025,1526837.283365737,-4462989.964543576,4278787.465455161,1.7847792679759051,-2.7180485047475007,-3.1680833394652437,0.1048132647342381,0.08817060438090163,-0.45222572083287493,0.8813240164847349,-0.08439999999999995,-1.1128,9.9595133,0.2698442648200608,0.6848599262773583,0.5660048222678485,nan,nan,nan
19.491365459999997,1526837.414908729,-4462990.164871,4278787.23195897,1.9185217636347096,-2.842424793829361,-3.1811878537213176,0.11313546179830314,0.061994246183207403,-0.45419796091646164,0.8815108017375229,-1.3544,0.04720000000000002,11.3895133,0.04949644675577669,0.5299619551628615,0.5245532525329832,nan,nan,nan
19.568296919000204,1526837.562351524,-4462990.38331786,4278786.987477393,2.0960925819978904,-3.0314056663182827,-3.1696943757703027,0.10161068495123228,0.06598102573537902,-0.4678192574803726,0.875480962576516,-2.0744,0.3872,12.2295133,-0.41410663580521706,0.07508551886183938,-0.2717532186894296,nan,nan,nan
19.656120335000196,1526838.215475483,-4462990.712456534,4278786.19842082,2.7851172351548037,-3.2035305180530234,-3.7705044541890524,0.06340594003436667,0.06585150237235596,-0.5082547498092606,0.8563412732414158,-1.5544,-1.6128,9.5895133,-0.7795349479415298,0.9924742069413588,-0.5946391303083806,42.40308,-71.113618,22.4
19.730877710000186,1526838.4626995476,-4462990.996821524,4278785.86372775,2.9734312000477794,-3.119335136637492,-3.805512300651343,0.053623919470642205,0.06185512496043771,-0.520899137307446,0.849683769461224,-3.0544,-2.4728000000000003,8.8295133,-0.3290218347704935,0.19725856650144247,-0.11467358600993995,nan,nan,nan
19.803036752000025,1526838.6769897805,-4462991.22162681,4278785.589470819,2.9749669232869396,-3.0912908627820785,-3.8663552510608286,0.03796660274039107,0.08915812457291963,-0.497923184123472,0.8617899217141479,-1.0444,-2.1628000000000003,8.6495133,0.6494533771288274,-0.4310599642165162,-0.8215319330676434,nan,nan,nan
19.87978596000039,1526838.905626029,-4462991.459202946,4278785.292328369,3.024349307947719,-3.122742725833983,-4.1513034020829105,0.02679247013502945,0.11795039386009168,-0.4747835604972669,0.871751363274295,-1.4744,1.0572,8.1695133,0.5938210072215082,-0.5008731342962894,-0.6873597468205793,nan,nan,nan
19.953808419000325,1526839.1285180508,-4462991.689346481,4278784.98638077,3.215911773569383,-3.101677333904984,-4.289973166214805,0.030993295427828402,0.09865132178276252,-0.4999304249242473,0.8598702827408562,-2.9044,-0.6728000000000001,8.9995133,-0.7206300856867212,0.38269979952583993,0.43728678993326675,nan,nan,nan
20.030575127000247,1526839.375503426,-4462991.927558532,4278784.656906361,3.37644067123004,-3.124501686534232,-4.438291642334555,0.012958055255614945,0.11492225807977531,-0.48271096832501703,0.8681100650362853,-2.6044,-0.6928000000000001,9.2395133,0.4334688821945292,-0.12235485277001915,-0.6666339619531467,nan,nan,nan
20.108641919000092,1526839.639346519,-4462992.1717145145,4278784.310087711,3.531589704050125,-3.1320387924300572,-4.435885837333944,0.009358458533514883,0.1372188809943215,-0.45012308039955834,0.8823109491561898,-2.0444,-2.2628000000000004,10.0895133,0.8818003338005727,-0.42015165639155166,-0.45610362093133067,nan,nan,nan
20.18425950200026,1526839.907104294,-4462992.409179172,4278783.973768086,3.64955849481744,-3.3379909772653136,-4.48679401787089,-0.011998721786665882,0.16550007831386543,-0.4368526614265932,0.8840958700926241,-1.0244,0.5372,11.8595133,0.24584598760513876,-0.4016075330891119,-0.8815276261049485,nan,nan,nan
20.259876002000055,1526840.1817594205,-4462992.660386636,4278783.636105056,3.7068310082043143,-3.373845199863119,-4.4814169812884765,-0.03262850206110312,0.17829000963604721,-0.4079187303527542,0.8948465585235076,-0.004399999999999932,-1.1228,10.3295133,0.7181757164261042,-0.0045451282604018995,-0.7571729169003525,nan,nan,nan
20.339872836000268,1526840.479593406,-4462992.9314661,4278783.276035153,3.7016279551362237,-3.4201349160605217,-4.627147388721402,-0.06519055280876794,0.20851069411268783,-0.37712430456580737,0.9000281894072151,0.17560000000000006,1.0272000000000001,9.0695133,0.6189101152189267,-0.2947061164044592,-1.165143629554027,nan,nan,nan
20.414285461000418,1526840.7542070083,-4462993.185196508,4278782.932759808,3.7076406857412705,-3.4119574099892382,-4.761095569333149,-0.09228095788415634,0.21900154168266744,-0.3556033250117756,0.9039185944264606,0.11560000000000006,0.9672000000000001,8.5695133,0.42801472828204695,0.08053967277432167,-0.8782551337574591,nan,nan,nan
20.490423961000033,1526841.0367147056,-4462993.445174297,4278782.569982975,3.800904467854787,-3.3954357680350213,-5.021522946702703,-0.1119728392854281,0.2245932162062544,-0.34788923270198807,0.9033233379157508,-1.7643999999999997,1.7672,7.7895133,0.07785804710068454,0.06635887260186774,-0.5651866991809763,nan,nan,nan
20.564574127000014,1526841.319672404,-4462993.697946946,4278782.196156537,3.937964118435847,-3.374438210709493,-5.112635119965472,-0.12313048063914131,0.23402159951959817,-0.36196504900702153,0.8938982489914323,-1.3544,0.19720000000000001,9.3695133,-0.4686481749300399,-0.22380211554218954,-0.3022964805993304,nan,nan,nan
20.651453627000137,1526841.6201572793,-4462993.955432189,4278781.806038831,3.9270577753716167,-3.504488184413122,-5.090505021322333,-0.12112821059035683,0.23571813209103987,-0.3456041523862089,0.9001792539338156,1.1756000000000002,1.1272,11.0895133,0.4607396517569406,0.0325431183444776,-0.04922373906015257,nan,nan,nan
20.735602461000326,1526839.481525948,-4462992.137403219,4278784.780364641,1.4431112373969506,-1.516149897263245,-0.9568344346878881,-0.0840454493920589,0.08321837505306914,-0.28461606340239115,0.9513173821076124,-0.26439999999999997,1.3472000000000002,11.5395133,-0.39447168172028085,0.4077889075232584,0.3380211887260893,42.403063,-71.113611,22.5
20.808027002000017,1526839.5914452055,-4462992.252885703,4278784.707484237,1.4228885572790364,-1.436292714600893,-0.6704237697199527,-0.07486224817083283,0.07909614125270645,-0.30572296186356274,0.9458715110330008,-0.5344,-1.1228,11.9995133,-0.5570054683122528,-0.024180082345338107,0.29438795742623103,nan,nan,nan
20.88442946100031,1526839.7005556198,-4462992.36302398,4278784.656074578,1.426970787340444,-1.3066227532911858,-0.5704619534649237,-0.08094106970494644,0.07040083281228818,-0.2917155608970005,0.9504705666466714,-1.2744,-0.8028,9.6295133,0.35274740428979146,0.2997966600561093,-0.10049278583748601,nan,nan,nan
20.958640711000044,1526839.805984444,-4462992.459561135,4278784.61392716,1.4071011740808705,-1.2097028946729367,-0.5663574614533533,-0.07274843328021809,0.07951273758618166,-0.262205838215022,0.9589752285536491,-1.4444,0.49720000000000003,8.7795133,0.8621653797156364,-0.21834796162970727,0.10131090892435834,nan,nan,nan
21.036025669000082,1526839.9143740328,-4462992.552745052,4278784.57030041,1.380998130555345,-1.0626970114494856,-0.5192397745568624,-0.06035839056139202,0.12024447937877572,-0.2601475326082015,0.9561492517919844,-1.0644,0.2972,8.9095133,0.13458124779050024,-1.10083006466934,0.021680261802117063,nan,nan,nan
21.108928461000232,1526840.0159662405,-4462992.63092165,4278784.532102881,1.306453960976423,-1.0103295542675923,-0.5687160279387224,-0.045300464182792946,0.15417566140771002,-0.25129544328903614,0.9544780427611871,-0.05439999999999992,2.1572,8.369513300000001,0.32329497316238714,-0.9797478478122336,0.1198550322267981,nan,nan,nan
21.18589458600036,1526840.1163428947,-4462992.708546659,4278784.488407646,1.2612973011007056,-0.960046273891205,-0.551737177693746,-0.05678102471727792,0.17031992620228875,-0.2731321107665568,0.9450745412905001,0.4456000000000001,1.9172,9.1795133,-0.6311819615220118,-0.38960839448165085,-0.3142956192067914,nan,nan,nan
21.2597494190004,1526840.2097062222,-4462992.779610883,4278784.447567142,1.2732004484729844,-0.8897557814364124,-0.4910594427013437,-0.08913601753904292,0.17637671141999597,-0.27692015539628495,0.9403516651434106,0.19560000000000005,0.7872000000000001,9.7795133,-0.27120780329818134,0.05654139555939964,-0.8608018412375158,nan,nan,nan
21.347750502000054,1526840.3196374797,-4462992.8564345855,4278784.405167862,1.3248093937353624,-0.9071603934559279,-0.3843613186489938,-0.0973842892033885,0.18292402362771276,-0.28919651315448375,0.9345696759109124,-0.21439999999999995,1.2372,10.8795133,-0.3246585116405077,-0.138717314507466,-0.18339592530721666,nan,nan,nan
21.527831544000037,1526840.5603318855,-4462993.021249564,4278784.335336217,1.1952901662138617,-1.0928795565396965,-0.08174634277797188,-0.15637822876675955,0.13600119336053126,-0.3072640881230326,0.9287832393400218,1.2056,1.7572,11.3395133,-0.3737458968528482,0.6401358641950036,-0.4277420205864228,nan,nan,nan
21.6015937520001,1526840.6481275428,-4462993.101523026,4278784.3293318385,1.0594313351744014,-1.0714408675652334,-0.12422746833096077,-0.18232404921765957,0.11374870362347857,-0.2907112558777931,0.9323658829899084,0.2956000000000001,1.6272,8.7695133,0.2578451262125998,0.863756174606777,-0.5160993139686357,nan,nan,nan
21.688410544000362,1526840.7298386118,-4462993.184160357,4278784.31975051,0.8871338232596517,-0.9755531430436157,-0.07885250234440311,-0.20445557655248858,0.133602499272482,-0.31508276770253935,0.9170993073044948,0.6556000000000001,0.6372,9.0795133,-0.6759060236043665,-0.473602364733878,-0.6851780852555864,nan,nan,nan
21.76978933600003,1526840.1742581243,-4462993.069965852,4278783.935326123,0.17746294010504515,-0.937573535014244,-0.2308315857280132,-0.23501458281588683,0.11788258615409049,-0.30695157202482176,0.9146871458229472,-0.8644000000000001,0.6072,8.4595133,0.18912278691532303,0.18198693554649206,-0.4179245435439547,42.403048,-71.113606,22.6
21.8465702110002,1526840.188519867,-4462993.145313598,4278783.916775429,0.011122672814124573,-0.9569082491297156,-0.21809630484946851,-0.24117348229707342,0.1412506392382815,-0.3193998332280322,0.9054652701468598,-0.3343999999999999,1.4072,9.6995133,-0.23521038747579834,-0.5848671045485165,-0.33611223485672054,nan,nan,nan
21.920959586000208,1526840.1893473803,-4462993.216506416,4278783.900549327,-0.2268245961785785,-0.9291616131130848,-0.04583132006852547,-0.24746485573115218,0.13164604817833436,-0.3089249670531354,0.9088431264332406,2.1356,0.2972,10.8495133,0.1978494331752947,0.368518999353386,-0.088493647230025,nan,nan,nan
21.997312126999987,1526840.1720177922,-4462993.287495137,4278783.897047776,-0.33219417593999934,-0.9820451859773287,0.10310468994511218,-0.24948247327906578,0.11077074401592532,-0.30027121586262207,0.9139614517461018,-0.23439999999999991,0.4172,11.4395133,0.10512881666309594,0.5866851558526772,0.12421835535678392,nan,nan,nan
22.072113211000215,1526840.147274766,-4462993.360641423,4278783.904727387,-0.41654023997591927,-1.0263535998284576,0.21658700216816684,-0.2568047873796482,0.1062019180078194,-0.289445602120757,0.9159659915957837,-1.0644,0.5272,11.0295133,0.2294835258676919,0.24961844406127234,-0.16157930965728753,nan,nan,nan
22.148111752000204,1526840.1155292273,-4462993.438862312,4278783.921234006,-0.5434003666096597,-0.8464005837929476,0.3689675121847533,-0.23397897954901717,0.10916153621631407,-0.2892513612420038,0.9217761369858104,0.5456000000000001,-1.3128,9.6295133,0.13239958622550732,-0.22707460788967893,0.5649139914853522,nan,nan,nan
22.22286362700015,1526840.075111063,-4462993.501817658,4278783.948677841,-0.6904020886356486,-0.7739190861150762,0.28757818451018985,-0.22345067630022086,0.1168380074481993,-0.2935022122545395,0.9221036423498936,-0.6244,1.4072,7.9195133,-0.02358921567148586,-0.2979786087519486,0.21584814108648623,nan,nan,nan
22.29917621100003,1526840.0223784677,-4462993.5609292425,4278783.970642931,-0.7625720222859579,-0.6536879551644175,0.3199247223705383,-0.2226192268895462,0.1291980585064564,-0.34445606682569196,0.9028280899933157,-0.5943999999999999,-0.2728,8.8795133,-1.3042245543223252,-0.6623160901057649,-0.03177044654020928,nan,nan,nan
22.37346612700003,1526839.96570653,-4462993.609509261,4278783.994418723,-0.8952055608427907,-0.47299285630652377,0.3750588304121497,-0.23820764510892,0.14319893721922375,-0.35768834037259795,0.8915213031157387,0.9756,-1.4928,8.4095133,-0.3966533432852738,-0.3143410704893954,-0.5302801141410897,nan,nan,nan
22.449732294000114,1526839.8973489315,-4462993.645626838,4278784.02305809,-1.0793973117899864,-0.462851447961219,0.34952818014928017,-0.24518527659485798,0.1464685943700577,-0.3569451562574797,0.8893937749868877,0.5656000000000001,0.6972,9.1495133,-0.008317584716535476,-0.014362605302870004,-0.2095758640871316,nan,nan,nan
22.52422075200002,1526839.8167905419,-4462993.680170715,4278784.04914434,-1.242365660653368,-0.4677426942645194,0.39794875781781375,-0.25445017454686814,0.14689332585524614,-0.3408670965674411,0.8930213225487263,0.7356,0.1472,9.9995133,0.3843814969821887,0.1983493972839389,-0.2641174032119544,nan,nan,nan
22.60042587700036,1526839.7224750072,-4462993.715679908,4278784.079355051,-1.37799550933394,-0.5390497100700447,0.46671425590877486,-0.2686505404707232,0.14906134775423147,-0.3285935481251722,0.8931035115806741,0.055600000000000066,0.6472,10.8195133,0.24911847995262812,0.1590794891140665,-0.40047125102401143,nan,nan,nan
22.685078419000092,1526839.619777997,-4462993.755853329,4278784.114137572,-1.5981992325615015,-0.5705461060910542,0.6736601189413471,-0.2773778296961353,0.15809902680872723,-0.3299221242952053,0.8883792150722994,1.8756,0.2472,11.7395133,-0.043224169756422064,-0.1681697456348703,-0.3175681115542808,nan,nan,nan
22.757077336000293,1526839.4885793575,-4462993.802690338,4278784.16943937,-1.7475452128244187,-0.4744685159481751,0.8899473708099657,-0.29593749963570865,0.16503962474126652,-0.3310484525046673,0.880675786669324,1.6656,-1.3528,10.6495133,-0.11085567827120234,-0.03836088251779203,-0.5051910061436712,nan,nan,nan
22.837865627000156,1526840.1776001384,-4462994.031860558,4278783.135296347,-1.2299623223655636,-0.9393416699425648,0.1412965236240371,-0.2905819729711925,0.19228044649210652,-0.3393839208780367,0.8737327404230408,2.9756,1.2472,9.4795133,0.06476807771072707,0.046723918516931535,-0.9175250419273315,42.403036,-71.113608,22.8
22.912177711000368,1526840.081769469,-4462994.105047955,4278783.146305254,-1.3001964232139698,-0.8086997859570609,0.17983450049499083,-0.3242868290690081,0.18058048740147,-0.3329150975324466,0.8668311706750733,0.7456,-1.2328,8.7895133,-0.16866970974351453,0.5703226941152304,-0.7375379628154163,nan,nan,nan
22.992313669000396,1526839.9775259502,-4462994.169885629,4278783.160723522,-1.4340977806675728,-0.7684471744693524,0.0451989709674081,-0.3518741227644949,0.17882983314262257,-0.318522027225333,0.8618284117130881,-0.6844,0.8772,7.9895133,0.13130875544301088,0.36088318387591084,-0.6873597468205793,nan,nan,nan
23.066495627000222,1526839.8708337948,-4462994.22705557,4278783.164086177,-1.5848927133023563,-0.721728580574257,0.07433826692880363,-0.3631095620090471,0.18332318482126062,-0.3224081390575136,0.8547496992165599,0.4456000000000001,0.2272,9.3595133,-0.16212472504853578,-0.0787216214701609,-0.3470205426816851,nan,nan,nan
23.144857253000282,1526839.7464927535,-4462994.2836780045,4278783.169918305,-1.803796276967774,-0.7145194201891184,0.1607255268879576,-0.3702617860701982,0.18727603435923704,-0.3020351887641445,0.858259076290914,1.1256000000000002,0.6772,10.1795133,0.47601128271189097,0.17762361241650626,-0.25102743382199694,nan,nan,nan
23.21946516900016,1526839.6126454328,-4462994.336697578,4278783.181844641,-1.994732001648408,-0.7733626845964436,0.3164409407529635,-0.3794076217694043,0.1810443316674259,-0.3068733218592634,0.853874447095228,0.9056000000000001,1.0172,11.5095133,-0.25593617234323096,0.14817118128910195,-0.18012343295972727,nan,nan,nan
23.29602779400011,1526839.459789287,-4462994.395960296,4278783.206093485,-2.1724875120607536,-0.9422960192693394,0.443401332692246,-0.370218204854486,0.1652553187347594,-0.3030537309344863,0.862431212994766,-0.3944,1.5272000000000001,12.1595133,0.040769800495805045,0.356519860745925,0.39801688176339434,nan,nan,nan
23.369764128000043,1526839.2988312254,-4462994.465774341,4278783.238944775,-2.1551493377411335,-0.8444290384726484,0.6302379303410723,-0.3720328567263998,0.1705322352821805,-0.31262517550494334,0.8571906499973625,-0.05439999999999992,-2.5628,10.6795133,-0.2210295873033444,-0.22707460788967893,-0.09503863192500372,nan,nan,nan
23.44632575300011,1526839.1338608302,-4462994.53041292,4278783.287187651,-2.265910369260644,-0.7302866148442473,0.5963503040588607,-0.36627875824425615,0.17223134286937605,-0.28335258691468584,0.8694179362297243,-0.20439999999999994,-0.36279999999999996,8.209513300000001,0.7978063635483454,0.25398176719125815,0.10349257048935126,nan,nan,nan
23.520623253000394,1526838.9661143527,-4462994.584476403,4278783.331335762,-2.3541850018556936,-0.6527433921442901,0.5797827036759415,-0.3669394706937454,0.16957459601129618,-0.2866022144564405,0.8685960237417648,-0.6644,0.1272,8.6795133,-0.1119465090536988,0.03145228756198115,0.011862784759648958,nan,nan,nan
23.597093253000367,1526838.78554228,-4462994.634543508,4278783.375806593,-2.496919399620941,-0.4780024430918106,0.5816433791472626,-0.36825973320678157,0.18444280724857157,-0.2934998989572645,0.8626838526491336,0.5556000000000001,-0.24279999999999996,8.049513300000001,-0.06394995462385474,-0.4190608256090552,-0.1670334635697698,nan,nan,nan
23.68120271099997,1526838.6008075958,-4462994.669908538,4278783.418839502,-2.720813103640977,-0.4168843333964081,0.47043405058364185,-0.3726311010670677,0.19542972565435962,-0.2995105595747025,0.8562982600170315,0.005600000000000077,1.9672,7.6795133,-0.10321986279372715,-0.31325023970689897,-0.22266583347708907,nan,nan,nan
23.75599316900025,1526838.3702101826,-4462994.705240789,4278783.458710258,-2.838825495615296,-0.44302471586933395,0.5056301446439638,-0.37260816695909194,0.1936289228859081,-0.30934923731931274,0.8532139497594542,-0.4244,0.5871999999999999,10.0495133,-0.23630121825829478,-0.06454082129770698,0.03149773884458517,nan,nan,nan
23.83025421100001,1526838.1591302583,-4462994.738181744,4278783.496306219,-2.9565594178479353,-0.5469318287887268,0.6454749677220564,-0.3761840392062111,0.19513953496167072,-0.30269827339766336,0.8536860584431822,0.015600000000000058,0.5472,11.8495133,0.15312537109294,0.06417721103687483,-0.12449106305240805,nan,nan,nan
23.910120419000123,1526840.0493285304,-4462994.898030983,4278782.425297568,-0.723827231493781,-1.101275098252255,-0.06850200244694038,-0.3251540478689989,0.24144810854854212,-0.2986006097667395,0.8641847791047974,-0.5743999999999999,0.45720000000000005,11.6895133,0.018953184845875923,0.16562447380904524,0.11003755518432999,42.403026,-71.113611,22.8
23.98297054400018,1526839.9940397714,-4462994.982150689,4278782.420065116,-0.7081556837297125,-1.1469329214433603,0.053538500825240365,-0.33211222706110505,0.2497578683378627,-0.30282333957835844,0.857683217396254,0.19560000000000005,-0.20279999999999998,11.3695133,-0.11958232453117398,-0.21071214615223208,-0.25102743382199694,nan,nan,nan
24.05706854400023,1526839.941514419,-4462995.067221045,4278782.424036176,-0.7245329659246491,-1.0511272087373542,0.10757758655215882,-0.33831138904493774,0.25221988975162013,-0.29963662089884574,0.8556567227745171,0.9056000000000001,-0.8128,9.3695133,0.03749730814831567,0.008544841129555572,-0.20303087939215286,nan,nan,nan
24.132097878000422,1526839.8874326816,-4462995.145680946,4278782.432066153,-0.8304103235705376,-1.0361959443730313,0.04192944374251928,-0.34257852644979714,0.2556583222038413,-0.2943250596226512,0.8547815717118996,0.19560000000000005,1.2972000000000001,8.7295133,0.11712795527055696,-0.002363466695408988,-0.16921512513476272,nan,nan,nan
24.207790794000175,1526839.8242251354,-4462995.224552079,4278782.4352576565,-0.8500211677788815,-0.8869851446901562,0.010254204921320287,-0.35281029873438574,0.2541287879455401,-0.30146256846705777,0.8485657149651222,0.5056,-0.6728000000000001,8.119513300000001,-0.29084275738311755,0.007454010347059116,-0.22593832582457843,nan,nan,nan
24.282295127999987,1526839.7609431488,-4462995.290585943,4278782.436021057,-0.8888508944886694,-0.9180998843481685,-0.17944072447321457,-0.3552452249942645,0.24865938227159784,-0.3084375718194305,0.8466614474357244,-1.7544,1.4172,8.2195133,-0.24284620295327353,0.06526804181937128,0.018407769454627698,nan,nan,nan
24.358676669000033,1526839.6930560132,-4462995.360707007,4278782.42231604,-0.9526908179790698,-0.8920981617803463,-0.09820513440428857,-0.35089978537467403,0.25021124371254483,-0.3255714738240655,0.8415859374612882,1.0556,-0.1628,10.1195133,-0.37810921998283403,-0.2619811929295655,0.14821663257170598,nan,nan,nan
24.43316371100036,1526839.622056849,-4462995.4271905115,4278782.414997314,-1.0273241184485797,-0.9067870799912889,-0.030727927931778976,-0.3483262702334132,0.24463250567012243,-0.3198066866037126,0.8464912464964608,1.0256,0.007200000000000012,10.3395133,0.13785374013798962,0.19071358180646372,0.11440087831431582,nan,nan,nan
24.50947308600007,1526839.5436825068,-4462995.496369109,4278782.412653087,-0.997303651574569,-0.923682540958202,0.12897323727679938,-0.35423721060994917,0.23161297758202434,-0.30933721265010633,0.8515761367379163,0.7356,-1.3628,11.4395133,0.11821878605305342,0.46669376977806704,-0.042678754365173835,nan,nan,nan
24.584108503000152,1526839.4695817644,-4462995.564999723,4278782.422235938,-0.9257909796625297,-0.9375759440204907,0.15772464162113065,-0.3581096933548733,0.22652844120043197,-0.319662617775907,0.847501105725518,-1.0644,-1.0828,10.3495133,-0.34320263494294745,0.02490730286700241,-0.02086213871524472,nan,nan,nan
24.670638753000276,1526839.398752274,-4462995.636730846,4278782.434302977,-0.8897408383591688,-0.831595021953407,0.2067727874032147,-0.33994657220120394,0.24409867120649512,-0.3053030913829898,0.855360853507223,0.11560000000000006,-1.9227999999999998,9.3095133,0.6559983618238062,-0.36015596335424654,0.2442097414313941,nan,nan,nan
24.752372586000092,1526839.3167633605,-4462995.713361668,4278782.453356926,-0.8889056662226624,-0.7644629162531741,0.1844390802514726,-0.32579336782452106,0.25370244187440905,-0.31315353488772946,0.8552360005358627,-0.19439999999999993,-0.4228,9.1295133,-0.000681769239060285,-0.33070353222684223,0.23984641830140827,nan,nan,nan
24.82719579400009,1526839.250774115,-4462995.770112719,4278782.467049038,-0.8902429688148267,-0.7132781401221917,0.14303351653867913,-0.32620895148326956,0.24371778597286348,-0.3267659027923448,0.8528853417087874,-0.12439999999999993,-0.2628,8.9395133,-0.42392411284768516,0.09799296529426496,0.1471258017892095,nan,nan,nan
24.90356829400025,1526839.1825798345,-4462995.824751162,4278782.478005674,-0.9268722072144346,-0.7491415169956323,0.05300283869545713,-0.32797152614921987,0.2398200119737284,-0.3274623629689726,0.8530471506826507,-0.7343999999999999,0.6972,9.2495133,-0.05849580071137245,0.0969021345117685,-0.000136353847812057,nan,nan,nan
24.981243086000177,1526839.9406905507,-4462995.520506142,4278781.895783695,0.0821713705334075,-0.6139050360235485,-0.31426624124935165,-0.3132646063232964,0.2697440511081029,-0.3156540222821958,0.854087801160226,0.40560000000000007,-0.32280000000000003,9.5895133,0.0887663549256491,0.05763222634189609,0.2649355262988267,42.40302,-71.113616,22.9
25.057445628000096,1526839.9472331996,-4462995.569386489,4278781.870761189,0.16469200506161097,-0.680885950240744,-0.3164059768551969,-0.3074831654698164,0.2692948029178938,-0.310260856064928,0.8582963438257627,-0.6943999999999999,-0.1728,10.6495133,0.18475946378533722,0.03472477990947052,0.12421835535678392,nan,nan,nan
25.132397294000384,1526839.9596490897,-4462995.620717488,4278781.846907804,0.3041184583196342,-0.7311446086621946,-0.21352605485203852,-0.30150903311601607,0.26462052811031167,-0.30209751933992623,0.8647574043727334,-0.2944,-1.1927999999999999,11.6695133,0.24366432604014585,0.16998779693903104,0.16894241743913863,nan,nan,nan
25.207316294000066,1526839.982399748,-4462995.67541335,4278781.830934231,0.4085274112132986,-0.7201750881203364,-0.006014299761228192,-0.30313208125509855,0.28325639738897834,-0.3029279094033209,0.8579693682838813,1.0456,-1.6927999999999999,11.9595133,0.06476807771072707,-0.4725115339513815,-0.236846633649543,nan,nan,nan
25.279233628000384,1526840.0116674176,-4462995.727008043,4278781.830503356,0.3811879008863252,-0.6916116879005465,0.01783625947315637,-0.3004471537224686,0.3181787175132411,-0.28046791792768694,0.8543017962709339,1.1156000000000001,0.30720000000000003,9.6095133,0.8239863023282604,-0.6983135059281479,-0.43974115919388385,nan,nan,nan
25.355713794000167,1526840.0409030844,-4462995.780052037,4278781.831871329,0.2542674684298152,-0.685487772853637,-0.1007209957789853,-0.3099599714366227,0.3269805514306617,-0.2809662425859162,0.8473880493475231,0.9156000000000001,2.5471999999999997,8.0395133,-0.07158577010132992,-0.1878046997198065,-0.32629475781425243,nan,nan,nan
25.429417044000274,1526840.0596958129,-4462995.830715952,4278781.824427111,0.19841688433792914,-0.6134315129613442,-0.1554942622994293,-0.3332622471257473,0.31019736311064616,-0.2910080663087321,0.8414441018034956,1.3256000000000001,1.0872,8.2795133,-0.6224553152620401,0.42524220004320173,-0.36774632754911774,nan,nan,nan
25.506607878000068,1526840.0749052442,-4462995.877737881,4278781.812507867,0.26861198183091095,-0.5048360171543601,-0.22548796297490892,-0.34604915019805454,0.30187703356725687,-0.3110895159353547,0.832071845385772,0.10560000000000005,-0.7227999999999999,8.4895133,-0.6879051622118275,0.029270625996988233,-0.13649020165986905,nan,nan,nan
25.580633211000077,1526840.094840831,-4462995.915205317,4278781.795772817,0.3563638871931806,-0.43878668658480974,-0.16836562290697227,-0.3394228014509825,0.30416486162683876,-0.298425674143405,0.8385809539784975,0.9456,-1.5928,9.9495133,0.413833928109593,0.06417721103687483,0.08713010875190441,nan,nan,nan
25.667412503000378,1526840.122066616,-4462995.948728108,4278781.782909879,0.2690072251549762,-0.525905561926407,-0.1466018732780094,-0.3304443203377127,0.3135762753099092,-0.27064791100283825,0.8480720367668366,1.1156000000000001,1.7972000000000001,10.4095133,0.8392579332832109,0.04563308773443508,-0.01322632323776953,nan,nan,nan
25.741204669000126,1526840.1447840522,-4462995.993140395,4278781.770529473,0.3126258988246439,-0.6358378779772007,-0.02364863780734422,-0.33531234120064213,0.287727298397979,-0.29731738411613223,0.8463929402199812,0.8756,1.0572,11.7395133,-0.7849891018540122,0.3292490911835136,0.2529363876913657,nan,nan,nan
25.917483003000143,1526840.1999210222,-4462996.105281373,4278781.766358628,0.695383230311038,-0.5184657329045583,0.42361298871764846,-0.34228372351093256,0.29746205809810694,-0.23321079833411532,0.8602156129184324,1.0756000000000001,-2.4728000000000003,11.6195133,0.6767241466912389,0.2190751821513716,-0.2564815877344792,nan,nan,nan
25.995926545000202,1526839.8653045453,-4462996.129709758,4278781.294578205,0.5601828007144943,-0.7407394252142581,0.07227461131452817,-0.331699605448868,0.29920268106094294,-0.2548955576412412,0.8576021120790863,-0.8444,-0.20279999999999998,10.0795133,-0.11412817061869171,-0.12780900668250142,0.5561873452253805,42.403013,-71.113621,23.0
26.070860461000393,1526839.9092976383,-4462996.187882587,4278781.30025418,0.6540152739627043,-0.576984493519051,-0.01693965239494738,-0.3077619768737679,0.315318213334378,-0.25193077247179574,0.8616193337947278,-0.37439999999999996,-0.7627999999999999,8.0295133,0.4094706049796072,-0.45178574908394886,0.4296509744557916,nan,nan,nan
26.143535128000167,1526839.9566324567,-4462996.229642249,4278781.299028161,0.5823639389683117,-0.5146197126313263,-0.12053012714438133,-0.2938950251010423,0.32830477623423715,-0.25440472828953337,0.8608832225704681,0.5656000000000001,1.9172,7.7795133,0.16730617126539393,-0.4332416257815091,0.2551180492563586,nan,nan,nan
26.219302003000394,1526840.0009340707,-4462996.268790421,4278781.289859188,0.5734583533393195,-0.41781401132928836,-0.17457133511647455,-0.2927200071799485,0.3175757459624955,-0.2644986228464897,0.8622651112285513,0.9656,0.9472,8.309513299999999,-0.291933588165614,0.1688969661565346,0.19621318700155002,nan,nan,nan
26.293665461000273,1526840.043580878,-4462996.299862309,4278781.27687671,0.623905521442933,-0.45079383482262564,-0.1838990206961606,-0.29566110117385236,0.29563693223664883,-0.2610316047403935,0.87008380023637,0.20560000000000006,1.2372,10.1395133,-0.06176829305886182,0.6237734024575567,0.1198550322267981,nan,nan,nan
26.368457086000035,1526840.0902585257,-4462996.333588563,4278781.26311826,0.7692336481653316,-0.5295469992451669,-0.060020276049762844,-0.29280704032285015,0.27437040392569606,-0.2716788931474801,0.8747431040950957,-0.10439999999999991,0.2672,12.2095133,-0.3606559274628907,0.4274238616081946,0.3358395271610964,nan,nan,nan
26.44340596100028,1526840.1472460467,-4462996.372819258,4278781.2586717475,0.9033286257077893,-0.5848323852682402,0.08312872147645739,-0.29242456472276257,0.27236457553038246,-0.2879276048992408,0.8702890938283578,-0.11439999999999992,-0.2628,12.1595133,-0.4293782667601675,-0.11690069885753686,0.10894672440183353,nan,nan,nan
26.51918262800018,1526840.2164221995,-4462996.417605234,4278781.265037675,0.9884650713614154,-0.5511291874175795,0.11731498721270212,-0.29295257863537133,0.2744977315587467,-0.27814784181989416,0.8726187945991446,-0.07439999999999994,-0.46279999999999993,10.1295133,0.25239097230011753,0.046723918516931535,-0.07976700097005335,nan,nan,nan
26.593116878000274,1526840.289546663,-4462996.458376555,4278781.273716379,0.9883287607335025,-0.5407938843770541,0.015195327644036971,-0.29461079483126357,0.2908103653346528,-0.2590145101976302,0.8726656261401835,-0.6344,1.2672,8.7095133,0.5687318992240897,-0.22052962319470018,-0.30338731138182684,nan,nan,nan
26.679717336000067,1526840.3652101064,-4462996.499778089,4278781.2748796875,1.0169110655313474,-0.4644774066531378,0.0075870824695960515,-0.29667329816149357,0.3037580767120113,-0.2715954631500148,0.8636850640964392,0.38560000000000005,0.4172,9.1495133,-0.2635719878207062,-0.4463315951714666,-0.1081286013149612,nan,nan,nan
26.762059003000104,1526840.4588030844,-4462996.542526984,4278781.275577976,1.1270305343727716,-0.3014421046627593,-0.04350280459828404,-0.29849201049949164,0.3043988642172231,-0.2632183141165,0.8654247343366397,0.12560000000000007,-0.7127999999999999,8.6295133,0.15967035578791872,0.06417721103687483,-0.08194866253504626,nan,nan,nan
26.83628204500019,1526840.5427975708,-4462996.564992635,4278781.272335832,1.156328876921618,-0.2216125720859422,-0.04953273274232678,-0.3012209591026778,0.3044398643993818,-0.2587146049471126,0.8658227627554892,0.6656000000000001,0.30720000000000003,9.1095133,0.08549386257815973,0.05763222634189609,-0.09722029348999664,nan,nan,nan
26.913453003000086,1526840.6318814366,-4462996.582065723,4278781.268519818,1.2722228225880112,-0.13863121941779177,0.026907884180254638,-0.30235877438532044,0.2890092340116978,-0.2537111336234483,0.8721717121303711,0.6556000000000001,-0.6728000000000001,10.2495133,0.02549816954085466,0.4437863233456415,0.08822093953440087,nan,nan,nan
26.98742654500029,1526840.7256676892,-4462996.5922853965,4278781.270503424,1.3781600242269083,-0.16667349105190443,0.1153570112347106,-0.30038680575851706,0.27304912172391266,-0.2530497021596855,0.8781672920609312,-0.07439999999999994,0.3372,11.2895133,-0.05849580071137245,0.4165155537832301,0.20057651013153585,nan,nan,nan
27.067873336000048,1526839.9828428319,-4462996.795546891,4278780.842896395,0.7703785024993849,-0.6078452194030476,-0.07962204153119609,-0.30119365037377815,0.2521390547405948,-0.2755894324405543,0.8773589615048507,-1.2544,-0.3828,10.9695133,-0.08794823183877676,0.16453364302654877,0.24857306456137993,42.403006,-71.113623,23.2
27.142111128000124,1526840.0428001704,-4462996.842854522,4278780.836699538,0.7777769949224429,-0.6567510433987659,-0.10367109499728963,-0.2823892605387328,0.28019804066429244,-0.2888438807995454,0.8708125955805165,-0.7644,1.2672,9.9695133,-0.006135923151542565,-0.9110255085149568,0.2605722031688409,nan,nan,nan
27.21655612800032,1526840.1009938668,-4462996.891992991,4278780.82894281,0.8068678864301415,-0.5419167934943611,-0.11724143149990926,-0.26477934280889737,0.2936196726115524,-0.3022071627382513,0.8673812419136168,0.5656000000000001,-0.4228,8.7495133,-0.1043106935762236,-0.5750496275060484,0.3805635892434511,nan,nan,nan
27.28859979500021,1526840.1588848562,-4462996.930874324,4278780.820530997,0.875169570340271,-0.47933907431121975,-0.15154025662593343,-0.2528039413352352,0.28793403354466335,-0.3036655240072731,0.8723367524403628,0.15560000000000007,-0.3128,9.1695133,0.06258641614573417,0.06635887260186774,0.38601774315593335,nan,nan,nan
27.365466835999996,1526840.2261137415,-4462996.967696253,4278780.808889958,1.0192426470417337,-0.35867246379715684,-0.18261643398127417,-0.23901779495546976,0.2810706498313748,-0.3146687959357471,0.8745589362181829,-0.3144,-1.3528,9.0695133,-0.1741238636559968,-0.008908451390387723,0.4645575594956782,nan,nan,nan
27.439505461000408,1526840.3015600778,-4462996.994245891,4278780.795372332,0.9596610185203942,-0.35841721626499073,-0.26889290824580225,-0.23146410254583405,0.28854832956826015,-0.3066200478212274,0.8770110475740118,0.7256,1.5272000000000001,8.7195133,0.3167499884674084,-0.1703514071998632,0.06967681623196112,nan,nan,nan
27.51586617000021,1526840.375100701,-4462997.021712075,4278780.774766564,0.9131042188875305,-0.38469188356492895,-0.3280979596865015,-0.23899170745711962,0.28206586254887794,-0.30838000305107943,0.8764836491493971,0.8756,1.6972,9.2295133,-0.14030810939860666,0.19398607415395308,-0.11031026287995412,nan,nan,nan
27.59001421100038,1526840.4425444049,-4462997.050126187,4278780.750532593,0.9953348990150538,-0.4409485975180037,-0.3363198193777232,-0.25264738483837446,0.26715378840459064,-0.293860110525746,0.8822949553714682,-0.20439999999999994,0.6072,10.5695133,0.1923952792628124,0.6063201099376134,-0.2728440494719261,nan,nan,nan
27.676966711000205,1526840.5188761824,-4462997.083942332,4278780.7247403795,1.1472001983158258,-0.5374416826281063,-0.32971174850807355,-0.2557697939817775,0.257262326671587,-0.2956645983310024,0.8837309282878737,-1.3444,0.49720000000000003,11.2795133,-0.11740066296618107,0.24961844406127234,0.02604358493210289,nan,nan,nan
27.751130670000293,1526840.6158570927,-4462997.129376062,4278780.696867524,1.418765773602698,-0.4412004688972422,-0.17261697994704522,-0.2530372618850167,0.2543408756240586,-0.32594982545129936,0.874665407415617,-0.6744,-2.7028000000000003,11.2895133,-0.6977226392542957,-0.19653134597977814,0.2071214948265146,nan,nan,nan
27.82733900300036,1526840.723408702,-4462997.162821908,4278780.683782042,1.4932501382840848,-0.3749753184138898,-0.24624185008096477,-0.24903227611275947,0.2887448511681558,-0.2954773820981758,0.8759580204571026,-0.6844,-0.5728,8.8195133,0.971248457965282,-0.6165011972409137,-0.39938042024151493,nan,nan,nan
27.901719336000042,1526840.8348558075,-4462997.190807784,4278780.665404049,1.409284786205375,-0.3481449280127775,-0.2615020004270575,-0.25256707901709596,0.30642401068411673,-0.30519692148328337,0.865545513503997,1.5956000000000001,1.4172,8.9495133,-0.21993875652084796,-0.5325072269886866,-0.2172116795646068,nan,nan,nan
27.977432128000146,1526840.9419398427,-4462997.217261461,4278780.645533906,1.4757507451357612,-0.18445429282932918,-0.2562465240450582,-0.26434902736981347,0.30159996356333335,-0.30624869294895846,0.8633474343107898,1.1956,-1.2828,8.5995133,-0.16866970974351453,0.17980527398149915,-0.23575580286704653,nan,nan,nan
28.052276878000157,1526841.0523610474,-4462997.231063022,4278780.62636058,1.4412577579506014,-0.13244052971097436,-0.3547406754777443,-0.2745225102898754,0.29783209843304626,-0.2882196459207662,0.8676767075064081,0.6656000000000001,0.9772000000000001,8.2495133,0.34292992724732335,0.332521583531003,-0.3186589423367772,nan,nan,nan
28.13171983600023,1526839.6360278437,-4462997.623889406,4278780.3821029365,-0.09992425435042973,-0.7657200442778545,-0.47839712150220765,-0.29524881337738074,0.2531584731011278,-0.31148308900559907,0.8670162694647796,-0.2944,0.9672000000000001,9.1395133,0.08222137023067037,0.3816089687433435,0.015135277107138327,42.402999,-71.113631,23.4
28.210671170000296,1526839.627768621,-4462997.687179869,4278780.342561102,-0.0361134309879127,-0.7490338376003511,-0.441851456975582,-0.2876475057623802,0.25276379292476997,-0.29397058112501523,0.8757572011720631,-0.13439999999999994,-0.6428,10.1595133,0.47710211349438747,0.1296270579866622,0.11767337066180518,nan,nan,nan
28.2832836700004,1526839.6251526966,-4462997.741437133,4278780.310555003,-0.0333872887104856,-0.9588190844001576,-0.25654463894526486,-0.27613571454210006,0.24419334750452612,-0.3094398003823992,0.8765647076427944,0.46560000000000007,1.5072,13.4995133,-0.35520177355040844,-0.0034542974779054442,0.46237589793068523,nan,nan,nan
28.36113137800021,1526839.6225503425,-4462997.816171767,4278780.290558769,0.049398068556745334,-0.9240307907424521,-0.19437803781217317,-0.2659630858040469,0.24913745177473787,-0.3041707963773867,0.8801558352363885,-0.17439999999999992,-0.9827999999999999,10.3195133,0.24584598760513876,-0.13217232981248725,0.1820323868290961,nan,nan,nan
28.538476877999983,1526839.6313117938,-4462997.980061796,4278780.2560830545,0.1762097830336064,-0.826327553163948,0.10310164946368955,-0.2120910334834556,0.2600507702053489,-0.3256366263913276,0.8839410492452189,0.7356,-0.9927999999999999,10.7795133,-0.015953400194010668,-0.3470659939642891,0.5692773146153379,nan,nan,nan
28.652676503000293,1526839.645931817,-4462998.048621711,4278780.264637338,0.13687475381507933,-0.6512392373869091,0.05254507091507027,-0.20154082279900995,0.2698978938945648,-0.3379082055812867,0.8788369978410957,1.1656000000000002,-0.5027999999999999,7.7695133,-0.18503217148096135,-0.38742673291665797,0.19839484856654294,nan,nan,nan
28.72918808700024,1526839.66067653,-4462998.118775888,4278780.27029771,0.07976573613612223,-0.7065202113356644,-0.17047582223774033,-0.21117243232638128,0.28524862665552764,-0.3396540185729104,0.8710192724851196,0.10560000000000005,1.9072,8.6295133,-0.06831327775384055,-0.23580125414965056,-0.27393488025442253,nan,nan,nan
28.80387425300023,1526839.6666345752,-4462998.171548915,4278780.257564139,0.1151336177078465,-0.8633812379798628,-0.24309045272632773,-0.22913150410897584,0.28304139874386514,-0.329918113688559,0.8709422249717809,-0.05439999999999992,1.8472000000000002,10.7895133,0.07676721631818809,0.2692533981462085,-0.473556913451274,nan,nan,nan
28.87991337800031,1526839.6753919548,-4462998.237220067,4278780.23907401,0.22463933143458908,-1.1074686641227636,-0.2640609501672327,-0.23621329690615306,0.2661730879420126,-0.32371606704521566,0.8766772918888996,-0.8344,1.7772000000000001,12.3195133,0.03749730814831567,0.5277802935978686,-0.027407123410223454,nan,nan,nan
28.954425795000134,1526839.6921236913,-4462998.319707287,4278780.219406047,0.2552648056797381,-1.2426838331603158,-0.24583845006300137,-0.23220971137883206,0.2778603588782404,-0.3249571619884945,0.8736561762698964,0.09560000000000007,1.2372,11.3195133,0.047314785190783776,-0.3394301784868139,-0.01758964636775535,nan,nan,nan
29.031733378000354,1526839.7116196896,-4462998.414617989,4278780.200629992,0.29386394832479423,-1.1945525141944375,-0.17501043772614883,-0.23470681780271666,0.2957509252862861,-0.32242542329973634,0.8680356829278114,1.2956,-0.7427999999999999,10.0695133,0.10076549353311012,-0.4136066716965729,-0.2619357416469615,nan,nan,nan
29.71711417000006,1526839.1696081874,-4462998.3798486255,4278780.396875342,0.3090286669792619,-1.2019371365635523,0.3587561106706518,-0.2056817073007722,0.29878316213951356,-0.3177875903215362,0.8760335069494329,0.2666000000000001,0.4412000000000001,10.565513300000001,0.0360792281310703,-0.09322967087736378,0.04753295134728304,42.402996,-71.113638,23.8
29.794676378000077,1526839.1978704557,-4462998.489771987,4278780.429685443,0.379206701793357,-1.1897777165571588,0.12357985339477112,-0.18253586658213378,0.3195801830466891,-0.34170682157731913,0.8647459815802664,-0.7944,1.3272000000000002,8.2895133,-0.291933588165614,-0.7408559064455097,0.4045618664583731,nan,nan,nan
29.877175503000217,1526839.229316361,-4462998.588434899,4278780.439933364,0.3793672887087258,-1.1404435764846803,-0.0544746087035608,-0.16746109831753705,0.3295989068277135,-0.35758168828491704,0.8575877085921341,0.7056000000000001,1.0072,7.9395133,-0.22975623356331606,-0.45833073377892763,0.3227495577711389,nan,nan,nan
29.951406212000165,1526839.2573300586,-4462998.672648911,4278780.435910785,0.36374181937609695,-1.1890197846230595,-0.2601068072124612,-0.16598388677416767,0.32919232452031794,-0.36628561670059084,0.8543515730442919,0.6856000000000001,2.1271999999999998,8.399513299999999,-0.22212041808584085,-0.07326746755767863,0.10131090892435834,nan,nan,nan
30.028203337000377,1526839.285259565,-4462998.763946458,4278780.415938776,0.43138142292383924,-1.2627853150956643,-0.3642085634184178,-0.17080682209626352,0.32100746584641776,-0.36646045674270056,0.8564379549021084,0.9156000000000001,0.8772,9.8695133,-0.06067746227636536,0.2452551209312865,-0.01868047715025181,nan,nan,nan
30.101616878000186,1526839.3170951547,-4462998.8571389625,4278780.389060487,0.54202061788941,-1.446364322583603,-0.4063662482450518,-0.17636274877015387,0.30846545125721603,-0.362433178246036,0.8616190794603686,0.7156,1.1272,11.6895133,0.03858813893081213,0.40997056908825136,-0.015407984802762441,nan,nan,nan
30.178967962000115,1526839.3587075907,-4462998.96818039,4278780.357862616,0.709852352053883,-1.6112492473418882,-0.4826595911402501,-0.18221719585263865,0.2939007103411054,-0.35637706868893004,0.8679946148830755,-0.4044,0.7872000000000001,11.4995133,0.08222137023067037,0.46123961586558476,-0.01322632323776953,nan,nan,nan
30.252767253000002,1526839.4111267554,-4462999.087163358,4278780.322220539,0.8935440481821554,-1.63113828141134,-0.5218587643652755,-0.17032402827808857,0.28211916149866584,-0.3662872287905614,0.8701908817541606,-0.5444,-0.8128,10.4895133,-0.17521469443849325,0.13071788876915863,0.48310168279811794,nan,nan,nan
30.329178545000104,1526839.4796753973,-4462999.21229688,4278780.282185904,0.840289870658595,-1.7049345276635153,-0.6343695323528367,-0.17350831750683166,0.2935578881514398,-0.36473700196939435,0.8664211158617566,1.1756000000000002,1.6472,9.2795133,0.026589000323351115,-0.2499820543221045,-0.2095758640871316,nan,nan,nan
30.403128003000347,1526839.5419890883,-4462999.338730349,4278780.235142725,0.8954582020404138,-1.6757056117522133,-0.7004653863536685,-0.1897456055758954,0.28753242097802517,-0.371049442583327,0.8623479713935048,0.7056000000000001,-0.2728,9.1295133,-0.3442934657254439,0.2387101362363078,-0.2892065112093729,nan,nan,nan
30.479700419999972,1526839.6105576432,-4462999.467045342,4278780.181505493,0.9795644279420658,-1.6042030552732387,-0.9019292858338439,-0.19736069746800236,0.279483713407176,-0.3564465778226943,0.8694155777016576,-0.7644,-0.11280000000000001,7.8795133,0.30038752672996155,0.38051813796084705,-0.16812429435226628,nan,nan,nan
30.553685212000346,1526839.6830965118,-4462999.585840054,4278780.114715675,0.9994461815639871,-1.5832963734560486,-0.9942977728963891,-0.1986654754911953,0.28896829950366126,-0.3601771083658112,0.8644661947674993,0.4156000000000001,0.23720000000000002,8.8595133,-0.0944932165337555,-0.26743534684204784,-0.12012773992242222,nan,nan,nan
30.659766420000324,1526839.7597112656,-4462999.707211133,4278780.038495583,1.032485932334762,-1.6977526367727322,-0.9921973068902392,-0.19433881009979254,0.27648453387934707,-0.36095116314978914,0.8691967486087767,1.0456,0.6172,10.9495133,-0.005045092369046109,0.2725258904936979,0.24530057221389054,nan,nan,nan
30.742646253000203,1526838.780866431,-4462998.920596879,4278780.456658345,0.23254180544055858,-1.4642626016506037,-0.2246506860413353,-0.21267672519504455,0.20281114353360946,-0.3514948312267823,0.8888687387890827,-1.6343999999999999,1.3372000000000002,11.7895133,-0.17630552522098972,0.827758758784394,0.2682080186463161,42.402995,-71.113645,23.9
30.815623878000224,1526838.7985560026,-4462999.0319840675,4278780.439569055,0.31500355202915065,-1.5225236919279548,-0.1989105239655039,-0.20341646899386692,0.1917937853891361,-0.369814736525053,0.8860439860604079,-1.0844,-0.48279999999999995,10.7995133,-0.46646651336504696,0.054359733994406724,0.4001985433283873,nan,nan,nan
30.891419337000116,1526838.8225300172,-4462999.147858968,4278780.424430547,0.3387202350214275,-1.4998534002858688,-0.2134441382016558,-0.20072481365031594,0.20001521463424693,-0.36924227567756324,0.8850783047330071,-0.5244,-0.8228,9.4995133,0.06149558536323771,-0.21943879241220374,-0.025225461845230543,nan,nan,nan
30.973593795000397,1526838.8503767862,-4462999.271164478,4278780.40688294,0.4445612514485278,-1.493735110049808,-0.377232059198522,-0.1785974163563256,0.2112912919153322,-0.3709381586630251,0.8864896140598699,-2.1344,-0.0928,8.7095133,0.13894457092048607,-0.4430591028239772,0.3903810662859192,nan,nan,nan
31.046662128000207,1526838.88257658,-4462999.379356459,4278780.379559834,0.46648875273031726,-1.491306029144688,-0.4809185009859592,-0.15852046943042783,0.23305703129251348,-0.38710269923611074,0.8778993004539485,-0.7043999999999999,0.23720000000000002,8.9295133,-0.25920866469072035,-0.8684831079975951,0.32056789620614595,nan,nan,nan
31.126132962000156,1526838.9199118323,-4462999.498712578,4278780.341069702,0.4775937661287396,-1.4546777606570762,-0.6851587709610574,-0.1427860371714297,0.26178760386176864,-0.39055154067696957,0.8709471239316288,-0.5544,0.5572,7.9295133,0.06258641614573417,-0.8368490153051978,0.05985933918949302,nan,nan,nan
31.49944679500004,1526839.0981397165,-4463000.041567527,4278780.085382951,0.05001247558127686,-1.7053037009276464,-1.4143854820455326,-0.12270174418603429,0.26569673898337925,-0.4106746355420827,0.8635368371681768,1.3256000000000001,1.5572000000000001,8.6895133,-0.07823983787455831,-0.08613927079113683,0.108183142854086,nan,nan,nan
31.88530942000034,1526838.4313522468,-4462999.484339746,4278780.148528222,-0.6741438068817392,-1.570467772314537,-0.9436639459096632,-0.10096847973783857,0.24750614791566344,-0.4107406981363136,0.8716869577403408,1.5056,1.1272,10.0695133,-0.07823983787455831,-0.08613927079113683,0.108183142854086,42.402991,-71.113651,23.9
32.461466379000285,1526838.0331786452,-4463000.411914549,4278779.591166324,-0.05442099063750294,-2.036854796881102,-2.018311749450514,-0.13853723929601194,0.20402207199450076,-0.39185257445962324,0.8863599652022948,-0.23439999999999994,0.4272,9.6225133,0.029861492670840484,0.19944022806643535,-0.06122287766761359,nan,nan,nan
32.539803420000226,1526838.0289146993,-4463000.571504414,4278779.433029328,-0.07984114488007238,-2.139070285185977,-2.1567566369007,-0.16660042053534105,0.2070706690189695,-0.3867542384643526,0.8830556027205082,-0.19439999999999993,1.4272,9.5895133,-0.053041646798890174,0.21253019745639284,-0.7037222085580261,nan,nan,nan
32.6762564200003,1526838.0207378285,-4463000.790575693,4278779.212146714,0.07814756807077305,-2.3122023051492384,-1.9935653360939263,-0.1997703687731319,0.2165685563875232,-0.37006416456122676,0.8810461819954785,-0.4244,-1.2928,12.3895133,0.16948783283038682,0.13289955033415154,-0.7179030087304801,nan,nan,nan
32.75237079500039,1526838.0293470856,-4463001.045303315,4278778.992522266,0.16652050391577555,-2.337864474951104,-2.1864962757310806,-0.21604046049973183,0.24090679624497355,-0.35671389616683863,0.8763821265796433,-1.3843999999999999,0.2172,9.0395133,0.20657607943526635,-0.2499820543221045,-0.4931918675362102,nan,nan,nan
32.82446579500038,1526838.0413608116,-4463001.213970008,4278778.834776126,0.10594162931401321,-2.3879363926362975,-2.323670747036896,-0.21407803053039717,0.2613219495307829,-0.3655062491366497,0.8673445785479102,-0.03439999999999996,1.6372,8.8695133,-0.16757887896101806,-0.6285003358483747,-0.14958017104982652,nan,nan,nan
32.90384633700023,1526837.2248495053,-4463001.065118552,4278778.871376817,-0.8318807737339734,-2.322964511744802,-1.9709975429290576,-0.2677018332921355,0.2519872001361434,-0.3646220285356339,0.8555050884026777,0.8456,-0.2628,9.4895133,-0.2962969112955998,0.09581130372927205,-0.11031026287995412,42.402975,-71.113671,24.2
32.97530687900007,1526837.1624079456,-4463001.239481913,4278778.723432346,-0.7447956478125954,-2.2531369744440437,-2.0986405308320397,-0.2758637798823151,0.24858841903173937,-0.35365938092743704,0.8585033580080517,-1.1044,-1.1527999999999998,8.299513300000001,0.2000310947402876,0.2550725979737546,-0.20521254095714578,nan,nan,nan
33.05099671200014,1526837.1060637825,-4463001.409932852,4278778.564669141,-0.8496343850950517,-2.2624042028787064,-2.2161417063875617,-0.2748203261928287,0.25453357964876305,-0.3606157688113946,0.8541912625306805,0.37560000000000004,1.1672,8.5795133,-0.14794392487608185,-0.22380211554218954,-0.01758964636775535,nan,nan,nan
33.12580650400014,1526837.042439796,-4463001.579350635,4278778.398715676,-0.8813109501302365,-2.283156963561391,-2.224446065301576,-0.27891603385338926,0.2514295328631153,-0.3512470238036958,0.8576797566047093,0.6956000000000001,-0.1528,9.8095133,0.19675860239279824,0.20271272041392474,-0.10158361661998247,nan,nan,nan
33.302280795000115,1526836.8868856593,-4463001.982334974,4278778.006093994,-1.0325262815792202,-2.476496844108424,-2.1247086776660113,-0.2896804836271514,0.22679067870212355,-0.38445336297682436,0.8466680682014156,1.0356,0.45720000000000005,10.7495133,-0.4751931596250186,0.14598951972410903,0.053314354494514285,nan,nan,nan
33.37702908700021,1526836.8097562476,-4463002.167328565,4278777.847378876,-1.0210332220325489,-2.6404444068097623,-2.1031638613633343,-0.28925603286778634,0.23216490887760408,-0.40991315267245343,0.8333076324853329,-0.49439999999999995,-0.3928,11.6295133,-0.6704518696918842,-0.4048800254366013,0.005317800064670222,nan,nan,nan
33.45163854500015,1526836.7335878073,-4463002.364304068,4278777.690484166,-0.9090784653026577,-2.7072190257867375,-2.2016620956770123,-0.2905443927073879,0.22729233732373957,-0.38586719979636214,0.8455936695235234,-1.7444,-1.6428,9.8495133,0.626545930696402,0.3859722918733293,-0.029588784975216366,nan,nan,nan
33.52577271200016,1526836.6661947907,-4463002.564999237,4278777.527267617,-0.9401562366685985,-2.7557692283781243,-2.351018113754084,-0.2758260522382453,0.22386415686538846,-0.3732799055181207,0.857010467188548,-0.9743999999999999,0.32720000000000005,8.9495133,0.46946629801691225,0.09362964216427914,0.3838360815909404,nan,nan,nan
33.60236104500018,1526836.5943093873,-4463002.775708452,4278777.347506127,-1.0643888923141427,-2.7133662999103954,-2.469146679634305,-0.274265610970647,0.23114143976990095,-0.36587944750713297,0.8587690259368969,0.5256000000000001,0.5072000000000001,8.0795133,0.2447551568226423,-0.11471903729254396,-0.06667703158009587,nan,nan,nan
33.68682492000016,1526836.5153335494,-4463002.977035597,4278777.164299661,-1.168661116803383,-2.7229092475354677,-2.73008453053872,-0.2770722119543477,0.2329783917389466,-0.35558339140093276,0.8616916563725139,-0.9543999999999999,1.9072,7.3895133,0.2632992801250821,0.07944884199182521,-0.12558189383490448,nan,nan,nan
33.75916387899997,1526836.4194008848,-4463003.200552865,4278776.940193391,-1.2124599092086288,-2.819064585084556,-2.8706139467738376,-0.28396229812985213,0.2309259433223534,-0.36270233793784534,0.8570213746183066,-0.9043999999999999,1.2272,9.4495133,-0.24284620295327353,0.02817979521449178,-0.1179460783574293,nan,nan,nan
33.83696279500009,1526836.3246972586,-4463003.420746239,4278776.715973565,-1.1904535113389922,-3.0003777567477137,-2.8879375160207794,-0.28808229866036994,0.23205249087066618,-0.3526694459672231,0.8595257373209866,-1.0044,0.4272,11.4295133,0.227301864302699,0.10126545764175433,-0.14194435557235133,nan,nan,nan
