# t [sec],r_ecef_X,r_ecef_Y,r_ecef_Z,v_ecef_X,v_ecef_Y,v_ecef_Z,q_e2b_scalar,q_e2b_i,q_e2b_j,q_e2b_k,accel_X [m/s^2],accel_Y [m/s^2],accel_Z [m/s^2],gyro_X [rad/s],gyro_Y [rad/s],gyro_Z [rad/s],gps_lat [deg],gps_long [deg],gps_alt [m]
0.0,1526837.9750632406,-4462986.862461158,4278788.480798556,0.0,0.0,0.0,0.901797015,-0.39979036,-0.066508461,-0.150021455,0.0,0.0,0.0,0.0,0.0,0.0,0.0,0.0,0.0
0.08588733400029014,1526837.9750632406,-4462986.862461158,4278788.480798556,0.00022539171575300387,-0.002010457409810318,-0.00022266394577291626,0.9018102832650468,-0.39974353874656476,-0.0665249794877721,-0.15005913463927056,-0.007600000000000051,0.013600000000000056,9.825113299999998,-0.001545343608536646,0.001227184630308513,0.0007726718042683229,nan,nan,nan
0.16857162499991318,1526837.975082321,-4462986.862631353,4278788.480779706,0.0009621697521458028,-0.005837337722605307,-0.0005291157835687899,0.9018231442046096,-0.39973156081002814,-0.06648980847455561,-0.15002933644808672,-0.007600000000000051,0.0036000000000000754,9.835113299999998,-0.00045451282604019,-0.0009544769346843989,-0.000318158978228133,nan,nan,nan
0.2543943750001745,1526837.9751649892,-4462986.8631328875,4278788.480734245,0.0008216517759109254,-0.010002159429354562,-0.0008160986687686944,0.9018065122255877,-0.3997749228598404,-0.06638141798449712,-0.1500617654935563,-0.017600000000000005,0.0036000000000000754,9.835113299999998,0.0006363179564562659,-0.0020453077171808547,0.0018635025867647789,nan,nan,nan
0.33892324999987977,1526837.975234458,-4462986.863978548,4278788.480665246,0.0017191124637344624,-0.01497856393718533,-0.0023852657821827328,0.9018039749313702,-0.3998114658456141,-0.066311625756213,-0.15001050437444738,-0.007600000000000051,-0.016399999999999942,9.835113299999998,0.0006363179564562659,-0.0020453077171808547,-0.000318158978228133,nan,nan,nan
0.42579266700022345,1526837.975384259,-4462986.865283758,4278788.480457397,0.001059289453417711,-0.018634759779388443,-0.00579257223181856,0.9017839413227982,-0.3998482982826416,-0.06624455039632757,-0.1500623924650361,-0.017600000000000005,-0.016399999999999942,9.805113299999997,0.0006363179564562659,-0.0009544769346843989,0.0018635025867647789,nan,nan,nan
0.5099068750000697,1526837.9754729462,-4462986.866843922,4278788.479972424,-0.00017959371171777372,-0.020604397883200676,-0.007239147844445404,0.9018164321078941,-0.39975329184145186,-0.06620072492892766,-0.15013957845199147,-0.017600000000000005,0.013600000000000056,9.805113299999997,-0.002636174391033102,0.00013635384781205705,0.0018635025867647789,nan,nan,nan
0.5838246250000338,1526837.9754577724,-4462986.868584789,4278788.479360788,0.0012752849749749495,-0.02525892475877889,-0.009931726318991141,0.901809398486473,-0.39974219781049847,-0.06641716923196639,-0.15011576958819686,0.0023999999999999577,-0.02639999999999995,9.825113299999998,0.0006363179564562659,0.004499676977797881,-0.002499820543221045,nan,nan,nan
0.658705084000303,1526837.9755528278,-4462986.870467504,4278788.4786205115,0.001456481056419795,-0.02759928697004721,-0.011180267603908445,0.9018275202801666,-0.39971404738179617,-0.0664920257032236,-0.15004870897684164,-0.007600000000000051,0.0036000000000000754,9.815113299999998,-0.00045451282604019,0.001227184630308513,-0.002499820543221045,nan,nan,nan
0.7406347920000371,1526837.9756579534,-4462986.872459561,4278788.477813544,0.002361737209650855,-0.031806745804693004,-0.01145189865484264,0.9018312907627002,-0.39967167716415314,-0.06665528312008068,-0.15006647614641658,-0.007600000000000051,-0.0063999999999999335,9.845113299999998,-0.00045451282604019,0.004499676977797881,-0.001408989760724589,nan,nan,nan
1.1175303750001149,1526837.9319670924,-4462986.737996108,4278788.633953128,-0.084569780044783,0.25115776903771414,0.3227699850291529,0.9099135647449029,-0.3807607357595332,-0.0640426350423649,-0.15158201822992926,-0.007600000000000051,0.013600000000000056,9.825113299999998,-0.0003454297477905444,0.0003545200043113483,-9.999282172884179e-05,42.40312,-71.113606,21.3
1.192673792000278,1526837.9252747016,-4462986.7181208525,4278788.659495383,-0.08859581594594149,0.26952673914153813,0.3449224075553353,0.909920804182201,-0.38079906507530803,-0.06395366975842111,-0.15147980339096245,0.012399999999999967,-0.0063999999999999335,9.825113299999998,0.0006363179564562659,-0.003136138499677311,-0.001408989760724589,nan,nan,nan
1.565634417000183,1526837.8922613387,-4462986.617687396,4278788.788023446,-0.11626180906274378,0.35562113651483207,0.4570354770121413,0.9099426040450845,-0.3807504471906474,-0.06399826908816085,-0.15145222487054444,-0.007600000000000051,0.013600000000000056,9.835113299999998,-0.00023634666954089881,0.00024543692606170266,-0.0002090758999784874,nan,nan,nan
1.640767250999943,1526837.8834915166,-4462986.5908623,4278788.822498393,-0.12217887280053344,0.3741336142925389,0.477651511091475,0.9099412039645967,-0.3807449733903571,-0.06393510805853274,-0.15150106626597218,-0.007600000000000051,0.0036000000000000754,9.805113299999997,-0.00045451282604019,-0.0009544769346843989,0.0018635025867647789,nan,nan,nan
1.7278016670002216,1526837.874363589,-4462986.56291095,4278788.858183518,-0.1286274889187016,0.39171497758280355,0.49966967363571974,0.9099712408339915,-0.38068848246665904,-0.06394999965238947,-0.15145632464008776,-0.017600000000000005,0.013600000000000056,9.825113299999998,-0.001545343608536646,0.00013635384781205705,-0.001408989760724589,nan,nan,nan
1.801598376000129,1526837.8632923907,-4462986.529195339,4278788.901190982,-0.13424996546340257,0.4120236670918938,0.5244911913696193,0.9099946212306802,-0.3806365115722177,-0.06388869468778262,-0.15147234281280958,0.0023999999999999577,0.0036000000000000754,9.825113299999998,-0.001545343608536646,-0.0009544769346843989,0.0007726718042683229,nan,nan,nan
2.1828840840003068,1526837.925254412,-4462986.716285281,4278788.6749528805,-0.02073092419115058,0.08022439437264611,0.1462827081242934,0.9035268727781202,-0.39579587740333805,-0.06636265287263116,-0.15026913341989215,0.0023999999999999577,0.0036000000000000754,9.815113299999998,-0.00045451282604018993,0.0002454369260617027,-0.000318158978228133,42.40312,-71.113606,21.3
2.359040126000309,1526837.921521537,-4462986.701839826,4278788.701293002,-0.021905735480622024,0.08466166862816155,0.15693129390520538,0.90359942577522,-0.3956963637802678,-0.06618410619848251,-0.15017366637736757,-0.007600000000000051,0.013600000000000056,9.825113299999998,-0.001545343608536646,-0.0020453077171808547,-0.000318158978228133,nan,nan,nan
2.4349851259999014,1526837.9198539902,-4462986.695395063,4278788.7132392,-0.022367177002381805,0.0855622027913992,0.16154270009697963,0.9036074205099858,-0.39569455107901497,-0.06609842895844029,-0.1501680728105648,-0.007600000000000051,0.0036000000000000754,9.835113299999998,-0.00045451282604019,-0.0020453077171808547,0.0007726718042683229,nan,nan,nan
2.5135651670002517,1526837.9180943598,-4462986.688663866,4278788.725947798,-0.022957309554618777,0.08887045913011998,0.16530531676494514,0.9035696023729941,-0.39576016720671486,-0.06608333715802345,-0.15022934742195965,0.0023999999999999577,0.013600000000000056,9.805113299999997,0.001727148738952722,0.00013635384781205705,0.0018635025867647789,nan,nan,nan
2.587883791999957,1526837.9163854597,-4462986.682048513,4278788.738252823,-0.022631007508871287,0.08943053156052133,0.16921252822746302,0.9035903428488119,-0.39573814873857055,-0.0661211289607605,-0.15014595167714745,0.0023999999999999577,-0.0063999999999999335,9.835113299999998,-0.00045451282604019,0.00013635384781205705,-0.002499820543221045,nan,nan,nan
2.6606340840003213,1526837.914752228,-4462986.675594501,4278788.750464532,-0.02401155713468109,0.09048799444736078,0.17306027886361358,0.9035993269163938,-0.39570758118185684,-0.06621332412850504,-0.15013181826662914,-0.017600000000000005,0.0036000000000000754,9.825113299999998,-0.00045451282604019,0.002318015412804969,-0.001408989760724589,nan,nan,nan
2.746575666999888,1526837.9129241852,-4462986.668705488,4278788.76363992,-0.02445571230406457,0.09137597324231161,0.1776531364161647,0.9035779489510471,-0.39577182416953427,-0.06619405776117603,-0.15009963569840687,-0.007600000000000051,0.0036000000000000754,9.835113299999998,0.001727148738952722,-0.0009544769346843989,-0.000318158978228133,nan,nan,nan
2.82100175100004,1526837.9108547173,-4462986.660973158,4278788.778673113,-0.026173489858954957,0.09312961488511062,0.182726776638567,0.9035671464149957,-0.3957707558572024,-0.06635079404257509,-0.15009827918516036,-0.017600000000000005,0.013600000000000056,9.825113299999998,0.0006363179564562659,0.0034088461953014253,-0.001408989760724589,nan,nan,nan
2.8957411260003028,1526837.9089009305,-4462986.654021261,4278788.792313218,-0.026450121029130358,0.09400219859186054,0.18607527977186838,0.9036018245668016,-0.3956831801533525,-0.06632813312703648,-0.15013041962209142,-0.007600000000000051,-0.0063999999999999335,9.825113299999998,-0.002636174391033102,0.00013635384781205705,0.0007726718042683229,nan,nan,nan
2.9698698760003026,1526837.906932884,-4462986.647026937,4278788.8061583275,-0.027419041358049706,0.09691549533401911,0.19065484261671128,0.9036049761309273,-0.39565434764276375,-0.06640712838259341,-0.15015251632766607,-0.007600000000000051,0.023600000000000065,9.815113299999998,-0.00045451282604019,0.002318015412804969,-0.000318158978228133,nan,nan,nan
3.0425168760002634,1526837.9049571753,-4462986.6400435865,4278788.819896169,-0.026765311394543884,0.09767338072054127,0.19347662769384805,0.9036029118430408,-0.39568553945683244,-0.06634748093441675,-0.15010910666557634,0.0023999999999999577,-0.016399999999999942,9.825113299999998,0.0006363179564562659,-0.0020453077171808547,-0.000318158978228133,nan,nan,nan
3.11703558399995,1526837.9029580317,-4462986.632748207,4278788.834347244,-0.028282081943637655,0.09991496860335752,0.1964637139410782,0.9035953630054986,-0.3957056403404078,-0.06635927330900203,-0.1500963475917953,-0.017600000000000005,0.0036000000000000754,9.805113299999997,0.0006363179564562659,0.00013635384781205705,-0.000318158978228133,nan,nan,nan
3.1950379170002634,1526837.9297856987,-4462986.7283250075,4278788.678759251,0.0078239805847038,-0.024627732775884592,0.042559690633720504,0.9015287214313428,-0.40047328217084405,-0.06684431584933662,-0.14966279663650695,-0.007600000000000051,0.0036000000000000754,9.835113299999998,0.001727148738952722,-0.004226969282173767,0.0018635025867647789,42.40312,-71.113606,21.3
3.2688215840003068,1526837.9303937596,-4462986.730239015,4278788.682066887,0.008444219495278883,-0.02779821480732747,0.03918165072894092,0.9015235717178149,-0.4005004873262033,-0.06681839517541163,-0.14963258973751808,-0.007600000000000051,-0.0063999999999999335,9.805113299999997,0.0006363179564562659,-0.0009544769346843989,-0.000318158978228133,nan,nan,nan
3.34347737600001,1526837.9310235544,-4462986.732312288,4278788.68498917,0.00989591760375242,-0.031215278918511835,0.03746586623182885,0.9015125406728264,-0.40052931216344695,-0.06677722782759819,-0.1496402736829537,0.0023999999999999577,0.0036000000000000754,9.825113299999998,0.0006363179564562659,-0.0009544769346843989,0.0007726718042683229,nan,nan,nan
3.4181582920000437,1526837.931762998,-4462986.7346447585,4278788.687788698,0.012199034341736366,-0.03267218179133202,0.03527321041926362,0.9014504387404643,-0.40064738983142845,-0.06688082348889125,-0.1496520348076895,0.022399999999999975,0.013600000000000056,9.805113299999997,0.003908810303945634,0.002318015412804969,-0.000318158978228133,nan,nan,nan
3.4917472920001273,1526837.9326611774,-4462986.737050316,4278788.690385762,-0.005590890198968766,-0.02280988985792448,0.05105631797656135,0.9012771545944073,-0.4010023840866661,-0.06711344779304211,-0.14964078402994302,-0.18760000000000004,0.3536000000000001,9.795113299999997,0.011544625781420825,0.004499676977797881,-0.001408989760724589,nan,nan,nan
3.564401292000184,1526837.932254808,-4462986.738708235,4278788.69409675,-0.005886144866708985,-0.024698693449276166,0.0504281630616783,0.9008800749394167,-0.4017041734195397,-0.06787870968173258,-0.14980430221847846,-0.017600000000000005,0.043600000000000055,9.815113299999998,0.0246345951713783,0.01868047715025181,-0.001408989760724589,nan,nan,nan
3.6415847510002095,1526837.9318005939,-4462986.740614152,4278788.697988123,0.030959521397890273,-0.012929844282521474,0.05424767382155804,0.901257711119861,-0.40161227027315505,-0.06993412657718927,-0.14680374998501813,0.48239999999999994,0.11360000000000006,9.845113299999998,0.007181302651435002,0.016498815585258893,-0.0930387754904269,nan,nan,nan
3.7255210010002884,1526837.934081881,-4462986.741566902,4278788.701985423,-0.0010606954086071693,-0.0324960937531959,0.046629727583502645,0.9055235328850335,-0.3957021303314131,-0.06956819984245324,-0.13640828996075,-0.5276000000000001,-0.06639999999999993,9.815113299999998,-0.17280577646048023,-0.10676506283684062,-0.2784800085148244,nan,nan,nan
3.7994340840000405,1526837.9339927,-4462986.744299111,4278788.705905962,-0.06186616297497754,-0.023927226816029823,0.06547006667891114,0.9046549618359131,-0.3975285914209278,-0.07135330983463041,-0.1359379445222913,-0.6176,0.33360000000000006,9.715113299999997,0.054087026298782606,0.029588784975216366,-0.021043943845660797,nan,nan,nan
3.8743183760002466,1526837.9293604917,-4462986.746090654,4278788.710808011,-0.025846142970166373,-0.02429877582862311,0.0836646320342862,0.9029979880891656,-0.4006803071080685,-0.07433533480557347,-0.1361035765833979,0.4724,0.09360000000000007,10.085113299999998,0.1042652422936196,0.06558620079759941,-0.015589789933178517,nan,nan,nan
3.950643209000191,1526837.9273867563,-4462986.747946225,4278788.717197043,-0.05528463690284859,-0.11304508413708542,0.1085960697953482,0.9064464560276544,-0.3924696690550947,-0.0699421345193088,-0.13939325522534984,-0.7576,-0.34639999999999993,10.745113299999998,-0.2524364235827215,-0.046769369799535554,0.09567494988145998,nan,nan,nan
4.024808626000322,1526837.9232814505,-4462986.756340684,4278788.725261129,-0.05615174937299349,-0.15627142798231491,0.12947020993007546,0.9082211438625478,-0.3872066002778161,-0.06571074662477974,-0.14452508736223474,-0.18760000000000004,-0.2764,10.395113299999998,-0.17280577646048023,-0.03258856962708162,0.15348898135377217,nan,nan,nan
4.101511584000036,1526837.918976677,-4462986.7683209535,4278788.735186731,-0.07280838184097527,-0.19937113516180588,0.17487184704010444,0.9084646491322542,-0.38895714255586944,-0.057466159497380036,-0.14178139370577508,-0.35760000000000003,-0.12639999999999993,10.545113299999997,0.012635456563917282,-0.23002894125894016,0.02040762588920453,nan,nan,nan
4.1756617930000175,1526837.9135766372,-4462986.783107879,4278788.748156598,-0.11420590086852273,-0.22894906760087758,0.21463154886046715,0.9071178488889153,-0.39519564144504127,-0.0532817879743203,-0.1346055899173418,-0.4476,0.023600000000000065,10.325113299999998,0.16207927376593173,-0.19948567934903938,-0.11703705270534892,nan,nan,nan
4.255660458999955,1526837.9362305985,-4462986.760412843,4278788.687054966,-0.14677447322285836,-0.23570834979040498,0.20979148051389096,0.9057796929307397,-0.39685110553874253,-0.05781493470335203,-0.13685679299532996,-0.7076,0.4436000000000001,10.045113299999997,0.03336124143134994,0.09285697036001082,0.013862641194225795,42.40312,-71.113606,21.3
4.3285017510002035,1526837.925027939,-4462986.77840344,4278788.703067441,-0.13430822120322575,-0.3186640339117227,0.2588096213889459,0.9128756698999988,-0.37718285380771605,-0.05953934829483554,-0.14438203717730422,0.09239999999999998,-0.3164,11.035113299999997,-0.5458699040742682,0.17903260217723083,0.10549242692392809,nan,nan,nan
4.403184918000079,1526837.9150168393,-4462986.802156099,4278788.722358657,-0.10992283133746927,-0.3926110520989783,0.280432056192934,0.9216316345939262,-0.35270778999168384,-0.05501538516924536,-0.15220267062813542,0.12239999999999998,-0.9964,10.735113299999998,-0.7182211677087081,0.04922373906015257,0.16439728917873672,nan,nan,nan
4.476864708999983,1526837.906870078,-4462986.831253862,4278788.7431424465,-0.054169857004640554,-0.42760579899855977,0.253087297462852,0.9185828536273062,-0.36334611591725025,-0.05670386175264583,-0.14480957733812724,0.6324,-1.7464,9.935113299999998,0.3115230909679462,-0.0674951546669682,-0.1715785918301717,nan,nan,nan
4.5534953340002176,1526837.9027242875,-4462986.863979887,4278788.762512019,-0.12633870224469024,-0.40361487592348155,0.3205579093069109,0.9078076004774797,-0.3914576573982804,-0.07122344365260845,-0.1325650203129844,-0.6676,0.27360000000000007,10.015113299999998,0.8503934975211955,0.14194435557235133,-0.349384009377094,nan,nan,nan
4.628254209000261,1526837.8933304048,-4462986.893990571,4278788.786347022,-0.1126188300901162,-0.45583564097634566,0.33069178411511996,0.910016395415243,-0.3865519420691848,-0.06845836240135189,-0.13327118717885508,0.0023999999999999577,-0.5164,10.425113299999998,-0.1542616531580405,-0.046769369799535554,0.029134272149176178,nan,nan,nan
4.714792667999973,1526837.884728663,-4462986.928806955,4278788.811605013,-0.06557453043619355,-0.5193911519527303,0.33663395294542725,0.9058423415236811,-0.3972163181974837,-0.07309886934207327,-0.12777090716664322,0.4124,-0.8464,10.565113299999998,0.3224313987929108,0.025225461845230543,-0.14430782226776032,nan,nan,nan
4.795142376000058,1526837.8787705994,-4462986.975998532,4278788.842191378,-0.0866598939734661,-0.502137543232954,0.37962648643856595,0.9026264375392485,-0.40539376273531974,-0.0779707034624627,-0.12182767070259401,-0.12760000000000005,0.5236000000000001,9.935113299999998,0.21443915132576163,0.027407123410223454,-0.13885366835527804,nan,nan,nan
4.869342083999982,1526837.8723616742,-4462987.013134073,4278788.870266623,-0.08630775790541514,-0.42185025496767614,0.3230911968548524,0.9020203889169848,-0.4082362080716327,-0.07493261747313684,-0.11869085808400359,0.37239999999999995,0.32360000000000005,8.525113299999997,0.07263114960122237,-0.11658253987930872,-0.03522474401811473,nan,nan,nan
4.947215293000227,1526837.865648369,-4462987.045946991,4278788.895397733,-0.1233554601635029,-0.34074499077721454,0.24063045802734379,0.9024081715090941,-0.4081058256647592,-0.07176304126884761,-0.11814903095959131,-0.017600000000000005,0.19360000000000005,8.245113299999996,-0.015726143780990572,-0.07949429327442922,0.019316795106708074,nan,nan,nan
5.021924126000158,1526837.856427754,-4462987.071417111,4278788.913384459,-0.18686361858511844,-0.2654479667376839,0.2124706906394278,0.9034561454580031,-0.40522707286191295,-0.07430681613379672,-0.118475779325302,-0.35760000000000003,0.7336,8.635113299999997,-0.07354017525330274,0.07213118549257816,-0.02867975932313599,nan,nan,nan
5.098708084000009,1526837.842066039,-4462987.091818557,4278788.9297142485,-0.19951388672659492,-0.2921533140229058,0.16050745101229036,0.9037882649483087,-0.40196711593438655,-0.08135817007783232,-0.12235219069330071,-0.10760000000000003,-0.5164,9.565113299999998,-0.06590435977582754,0.21612084878211033,0.00949931806423997,nan,nan,nan
5.172302251000019,1526837.8273669034,-4462987.113342879,4278788.941539595,-0.19124979877607082,-0.2734909847511276,0.13761548675107327,0.9038143611558592,-0.4024561037989906,-0.08365051554357072,-0.11895913957911448,0.15239999999999998,0.053600000000000064,9.445113299999997,0.02681625673637121,0.01758964636775535,-0.10721957566288082,nan,nan,nan
5.249119917999906,1526837.8126812377,-4462987.134343671,4278788.952106795,-0.21827049730483608,-0.32930432629120737,0.16374395950846354,0.9038732347842724,-0.40363303979297555,-0.08241907656048895,-0.11532840501697966,-0.6176,-0.0063999999999999335,10.455113299999997,0.031179579866357037,-0.07076764701445758,-0.07013132905800132,nan,nan,nan
5.332177793000028,1526837.9627656902,-4462986.887082695,4278788.7981346445,-0.007065281467185575,-0.2531219087423745,0.13926154105180594,0.90206277332446,-0.4066856995901817,-0.09040471055256478,-0.11276738711915683,-0.5576,-0.20639999999999994,10.525113299999997,0.13808099655100972,-0.03258856962708162,-0.11703705270534892,42.40312,-71.113606,21.3
5.4079830840000795,1526837.962204004,-4462986.9072057605,4278788.809205867,-0.011872054391044634,-0.2751419794440132,0.13848653165054042,0.905508404017932,-0.39859333358967786,-0.091554873726108,-0.11311759511458881,-0.25760000000000005,0.09360000000000007,9.975113299999997,-0.21643900776033848,0.04486041593016675,-0.03195225167062536,nan,nan,nan
5.482350834000044,1526837.9613238242,-4462986.927604455,4278788.8194730915,-0.010486283062185575,-0.2942175391597459,0.12377050937084305,0.9083170898022971,-0.3933351209794243,-0.09502679377518004,-0.10591249217511169,-0.1976,-0.21639999999999995,9.855113299999998,-0.13026337594311846,0.016498815585258893,-0.23484677721496616,nan,nan,nan
5.558838793000177,1526837.9605196286,-4462986.950168071,4278788.828965083,-0.024320860584401,-0.280725366948233,0.09766983754577219,0.9089532266872192,-0.39179870565891645,-0.09665239051750905,-0.10467149517842736,-0.26760000000000006,-0.10639999999999991,9.405113299999998,-0.03536109786592678,0.028497954192719912,-0.05158720575556157,nan,nan,nan
5.632405543000004,1526837.9587225541,-4462986.970910938,4278788.836181931,-0.04560050695055623,-0.28836444478952994,0.10598430598635689,0.9090688403137241,-0.3919420539708932,-0.09472844096040005,-0.10488943192570147,-0.5076,0.023600000000000065,9.875113299999997,-0.003727005173529558,-0.045678539017039096,0.025861779801686812,nan,nan,nan
5.721920959000272,1526837.9552246267,-4462986.993030822,4278788.844311784,-0.07091750717452228,-0.25060490248388906,0.05569344726311881,0.9050644886381013,-0.4018914238525327,-0.09340832432269708,-0.10303611184438237,-0.2876000000000001,-0.13639999999999994,8.935113299999998,0.2777073367105561,-0.0674951546669682,0.005135994934254147,nan,nan,nan
5.801910625999881,1526837.9486466437,-4462987.016275784,4278788.849477653,-0.12211609925986028,-0.23809998733218635,-0.0809927314018336,0.9065786896869401,-0.3912932342349601,-0.10464407930016141,-0.11855083918565551,-0.4776,-0.7664,8.595113299999998,-0.22625648480280658,0.37429131224409645,0.18075975091618357,nan,nan,nan
5.875663583999994,1526837.9396336665,-4462987.033849141,4278788.843499853,-0.15386391155550366,-0.22329951609514614,-0.16444246668386797,0.9100681659322462,-0.3822905373755526,-0.10173193199306031,-0.12361429108130732,-0.6876,-0.6564,8.775113299999997,-0.2818888547101258,0.001227184630308513,0.11858239631388556,nan,nan,nan
5.9523663760001,1526837.9278315417,-4462987.05097732,4278788.830886301,-0.12569010950874066,-0.19924334309736053,-0.23125472450066387,0.9074297153061038,-0.3880509797707844,-0.09982879041058566,-0.12657788922368288,0.07239999999999996,-0.6864,9.085113299999998,0.14898930437597427,-0.027134415714599344,0.11312824240140329,nan,nan,nan
6.026734126000065,1526837.9185062365,-4462987.065759748,4278788.813728858,-0.08720654493911126,-0.17737365882556472,-0.3037678197526841,0.9005607206606212,-0.40681652577181465,-0.09330114962459458,-0.1215960476234654,0.23239999999999997,-0.6963999999999999,9.075113299999998,0.5220534319897623,-0.25729971082135156,0.02040762588920453,nan,nan,nan
6.103127793000112,1526837.9118329664,-4462987.079332839,4278788.79048376,-0.07335724430999568,-0.1333333452141433,-0.3967109874448795,0.8981197038370363,-0.41414123940139214,-0.07992993273479286,-0.12441558510295415,0.18239999999999998,-0.2964,8.645113299999998,0.14898930437597427,-0.30202377290370624,0.23421045925850992,nan,nan,nan
6.1774133339999935,1526837.9064006761,-4462987.089206512,4278788.761106303,-0.11209743433141794,-0.18068604956388779,-0.4317477295572254,0.8972099976862893,-0.41892329120267197,-0.06870745046037847,-0.12164202788374986,-0.6776,-0.2864,9.825113299999998,0.09444776525115148,-0.3172954038586566,0.07167667266653796,nan,nan,nan
6.253608876000271,1526837.897833737,-4462987.10301527,4278788.728110396,-0.2127163391226536,-0.20919489917420253,-0.28633317971652494,0.8908383243831608,-0.42740140962231005,-0.08444670107802563,-0.12885600528050384,-1.1876,1.9036,10.985113299999998,0.30606893705546395,0.4331961744989051,0.03240676449666554,nan,nan,nan
6.327893958999994,1526837.8820254654,-4462987.118561842,4278788.7068312,-0.17664977717013963,-0.2921431398270612,-0.24633075209696315,0.8939126645372406,-0.41954383578931326,-0.08599281311778048,-0.13231913950731905,0.0023999999999999577,0.36360000000000003,11.065113299999998,-0.22625648480280658,0.09722029348999664,0.03677008762665137,nan,nan,nan
6.408656917999906,1526837.9514772047,-4462986.83906421,4278788.732623508,-0.04999931328047297,-0.05887975986065214,-0.08884203805561536,0.9021647712062468,-0.4025794520376431,-0.08317256526293806,-0.1308083916871548,-0.17760000000000004,0.6936000000000001,9.995113299999998,-0.32552208600998406,-0.17548740213411737,-0.06358634436302259,42.40312,-71.113606,21.3
6.483022167999934,1526837.9475855415,-4462986.843647077,4278788.725708547,-0.011133638941195956,-0.06782194328626273,-0.00595228640233042,0.8957516393293375,-0.41389342421999326,-0.08503504194643334,-0.13816756574597394,0.25239999999999996,0.7936000000000001,10.715113299999997,0.3191589064454214,0.09503863192500372,0.19712221265363042,nan,nan,nan
6.557851418000155,1526837.9467526646,-4462986.84872065,4278788.725263272,0.028874248677321218,-0.010942256422452723,-0.01118952996021727,0.8906845802996709,-0.42584623266687244,-0.08057461733140557,-0.13727234294815338,0.5424,0.7236,9.345113299999998,0.32788555270539305,-0.14930746335420242,0.07385833423153088,nan,nan,nan
6.6297016680000525,1526837.94881745,-4462986.849503126,4278788.724463114,0.06092619846734787,0.01931319447454738,-0.09392554477313386,0.889487552767219,-0.4301675585029547,-0.07863838669741606,-0.13260380755530818,0.49239999999999995,-0.08639999999999995,8.865113299999997,0.12499102716105225,-0.11767337066180518,-0.07885797531797296,nan,nan,nan
6.722224668000308,1526837.9535196172,-4462986.84801257,4278788.717214121,0.09133310738987063,0.004311184525870315,-0.16595040572932862,0.8902109526318258,-0.4275575858436588,-0.087162631197461,-0.1308497110480636,0.32239999999999996,-0.18639999999999993,9.445113299999997,-0.03536109786592678,0.1844867560897131,-0.14321699148526384,nan,nan,nan
6.799327625999922,1526837.9619945113,-4462986.847612531,4278788.70181541,0.15148000101751813,0.013384125816285564,-0.21137418717770706,0.8985739876873686,-0.41480324951421294,-0.08790476526252858,-0.11303010946184419,0.5024,0.27360000000000007,9.575113299999998,-0.28625217784011164,-0.1296725092692662,-0.39628973302444165,nan,nan,nan
6.871175417999893,1526837.9728079364,-4462986.846657103,4278788.686726428,0.16175057042621177,0.033397367913243714,-0.2171161297655907,0.9019739090993805,-0.40934901770403437,-0.09300721963029239,-0.10112421402470201,0.15239999999999998,0.5336000000000001,9.575113299999998,-0.1313542067256149,-0.0009544769346843989,-0.38319976363448416,nan,nan,nan
6.947784210000009,1526837.9852235732,-4462986.844093591,4278788.670061046,0.22910855809882946,0.08662312034035474,-0.19616580372284298,0.9057905002191385,-0.40103683946209023,-0.10017124436905347,-0.09315978459250704,0.9224,0.9036000000000001,9.695113299999997,-0.19789488445789874,0.09612946270750018,-0.2937516394697748,nan,nan,nan
7.021186084999954,1526838.0021351737,-4462986.837699523,4278788.655581108,0.20842316989852533,0.002770816582368163,-0.14883146368229538,0.9052534666148307,-0.3981968199687642,-0.11729410797214888,-0.09054030340328832,-0.7776000000000001,-0.05639999999999992,10.955113299999997,-0.013544482215997663,0.40047125102401143,-0.25666339286489526,nan,nan,nan
7.299382625999897,1526838.0601076095,-4462986.836928827,4278788.614183972,0.2367973217813934,-0.13568900117693666,0.04464886313754013,0.8883682917777271,-0.43630887018221953,-0.11046647942332921,-0.09073866565472428,-0.5776,0.3536000000000001,10.625113299999997,0.29188813688301,-0.05440518527701074,0.06404085718906277,nan,nan,nan
7.373135209999873,1526838.077475361,-4462986.846880851,4278788.617458714,0.26364989661709165,-0.15277989824039734,-0.03825554539315784,0.8895497797220013,-0.4339706731635022,-0.10892715865889761,-0.09222537012016574,0.13239999999999996,-0.08639999999999995,9.355113299999998,-0.07899432916578501,-0.01731693867213124,0.04440590310412656,nan,nan,nan
7.45388291800009,1526837.950068899,-4462986.765073587,4278788.67543188,0.16974994133922844,-0.14828731971836562,-0.006273743124669051,0.8908619417292233,-0.4263199331454705,-0.11819436486291562,-0.10318143269347514,0.4024,-0.4463999999999999,10.045113299999997,-0.0964476216857283,0.4506494670188484,0.11421907318389975,42.40312,-71.113606,21.3
7.528264335000131,1526837.963288607,-4462986.776621839,4278788.674943296,0.24348773386195863,-0.23166318130867103,-0.0374180082988696,0.8928878499984815,-0.4180319801952199,-0.11785855644746594,-0.11878515095759526,0.11239999999999997,-0.2764,10.585113299999998,-0.2600722390601967,0.17903260217723083,0.330203568118198,nan,nan,nan
7.608338168000046,1526837.9827860496,-4462986.795172422,4278788.671947025,0.3223865295775341,-0.23103168546872732,-0.0809753710380336,0.8980403793185233,-0.40143412270772694,-0.12091039985741481,-0.1332471313101604,0.3424,0.06360000000000007,9.725113299999997,-0.45751261069205523,0.2532090953869899,0.22657464378103473,nan,nan,nan
7.683167501000298,1526838.0068743278,-4462986.8124347925,4278788.665896656,0.45891909822941346,-0.19903794005161135,-0.05410438636014703,0.8987403676611507,-0.39088141950330596,-0.1272022056623049,-0.152633767085699,0.9723999999999999,0.5336000000000001,10.295113299999997,-0.301523808795062,0.39501709711152916,0.36183766081059526,nan,nan,nan
7.771317043000181,1526838.0427549174,-4462986.827996573,4278788.661666504,0.5115855644631904,-0.1876794829364694,-0.020065540435225904,0.9017873223830868,-0.3830698475042009,-0.12158573078702528,-0.15891515896220273,-0.49760000000000004,0.3536000000000001,10.165113299999998,-0.2524364235827215,-0.045678539017039096,0.16330645839624028,nan,nan,nan
7.845800543000223,1526838.0860094768,-4462986.843864874,4278788.659969962,0.6450521699045443,-0.1703132859326396,-0.1176677190548645,0.9023490174698376,-0.3810105282031221,-0.11126410729644816,-0.1679807341746883,0.5524,-1.1363999999999999,9.365113299999997,-0.11390091420567161,-0.13185417083425913,0.2789345213408646,nan,nan,nan
7.921340543000042,1526838.1349361467,-4462986.856782995,4278788.651044964,0.7588645773139683,-0.10081840482481175,-0.17356323926530415,0.9000693376626612,-0.38434643416939424,-0.10215757342871647,-0.17809221400351163,0.8024,-0.4563999999999999,9.145113299999998,0.032270410648853484,-0.12312752457428747,0.35202018376812716,nan,nan,nan
7.996136043000206,1526838.1916859688,-4462986.864322452,4278788.638065464,0.8484583659869462,-0.04479289977311651,-0.22930003899764073,0.8957221406249809,-0.391859669917707,-0.09451669528708465,-0.18760181437006962,0.5324,-0.49639999999999995,9.145113299999998,0.1631701045484282,-0.11003755518432999,0.3487476914206378,nan,nan,nan
8.172711542999878,1526838.3413655849,-4462986.872224529,4278788.597613812,1.1465484207163095,-0.07424467410576707,-0.3913549046921099,0.8956089613715504,-0.3952753296432249,-0.06875782228663124,-0.19213111283068812,0.6724,-1.2264,9.795113299999997,-0.02445279004096222,-0.24857306456137993,0.16439728917873672,nan,nan,nan
8.247395292999954,1526838.4272145445,-4462986.877783674,4278788.568310723,1.1609211849421022,-0.16529386570993598,-0.3849920067373543,0.8912422015027921,-0.4053169023920538,-0.06460845760309769,-0.19295412578813068,-0.6976,-0.7664,10.735113299999998,0.26352653653810215,-0.13403583239925204,0.10440159614143164,nan,nan,nan
8.321636460000263,1526838.5134426912,-4462986.890060979,4278788.539715201,1.2210193812951664,-0.13738248823390364,-0.4320836471694882,0.891403738971933,-0.409356082157888,-0.05954653346029831,-0.1851517838337244,0.5724,-0.3164,9.335113299999998,0.08244862664369047,-0.22784727969394725,-0.12576369896532055,nan,nan,nan
8.396082709999973,1526838.6043238756,-4462986.900286438,4278788.507554963,1.27423892856314,-0.14064557115061982,-0.404977086778587,0.8939164827843995,-0.40516964205683725,-0.0651825662030025,-0.18028343401943592,0.5324,0.27360000000000007,10.255113299999998,-0.09208429855574249,0.0983111242724931,-0.19775853061008666,nan,nan,nan
8.476011001000188,1526838.0094826175,-4462986.807267143,4278788.701630615,0.5326429760016017,-0.09462862419200489,-0.03195159399366715,0.9006589615760928,-0.3969332390833728,-0.04922861606172721,-0.16980572004750008,-0.11760000000000004,0.6236,10.075113299999998,0.001727148738952722,-0.0009544769346843989,-0.12467286818282412,42.40312,-71.113606,21.3
8.548748460000297,1526838.0501340402,-4462986.814489219,4278788.699192062,0.5610284815694253,-0.0406510887326884,-0.04728005974856636,0.900621494093062,-0.39846700658396916,-0.04605514735562364,-0.16728386951643143,0.7223999999999999,0.11360000000000006,9.255113299999998,0.025725425953874757,-0.10785589361933708,-0.024316436193150163,nan,nan,nan
8.623391501000242,1526838.0918755645,-4462986.817513733,4278788.695674341,0.5707124799286607,0.016331395256879558,-0.08965247221436962,0.9002774100218393,-0.39726645972770247,-0.041091485512457664,-0.17318035499130166,0.5724,-0.03639999999999996,8.905113299999998,-0.05499605195086299,-0.05113269292952138,0.19603138187113395,nan,nan,nan
8.71602837599994,1526838.134276791,-4462986.816300388,4278788.689013588,0.49369076773483284,-0.05654690037043407,-0.0016168570363529478,0.8962443578889261,-0.39807793546740283,-0.048266341303869455,-0.18960582559658343,-0.9776,0.4336000000000001,11.075113299999998,0.07808530351370464,0.3502930350291744,0.3411118759431626,nan,nan,nan
8.789845835000051,1526838.1798327237,-4462986.821518324,4278788.68886439,0.5137895047164547,-0.15181956180473155,0.002726130728666565,0.8911190444474174,-0.40542393616398825,-0.028341505322327126,-0.20182923534818178,-0.18760000000000004,-0.7163999999999999,10.605113299999998,0.09226610368615858,-0.3063870960336921,0.4381958155853472,nan,nan,nan
8.866582709999875,1526838.2192012449,-4462986.833151321,4278788.689073277,0.4531906603577412,-0.29316475514011087,0.04881763371651382,0.888098330758033,-0.4011902275566677,-0.017646928632338382,-0.22364333811767537,-1.0876000000000001,-0.35639999999999994,11.345113299999998,-0.13899002220309012,0.006681338542790793,0.6334545256522127,nan,nan,nan
8.940527043000202,1526838.2528091844,-4462986.854891979,4278788.692693519,0.5051582941633845,-0.26823475321821655,0.026337474315476395,0.8893230757054147,-0.3971150469613343,-0.019128571453784823,-0.22591636683879923,0.9924,-0.38639999999999997,9.505113299999998,-0.10299260638070705,0.08413032410003918,0.029134272149176178,nan,nan,nan
9.018167418000303,1526838.2918155503,-4462986.875604027,4278788.694727197,0.5007864959106121,-0.21128078747084095,0.025396576916396962,0.885673357064463,-0.40437283132051993,-0.023855345879516036,-0.22692783193276736,0.4624,0.27360000000000007,9.265113299999998,0.23189244384570493,0.07867617018755689,-0.000318158978228133,nan,nan,nan
9.09171275100016,1526838.3286647769,-4462986.891150639,4278788.696595946,0.5644805975973359,-0.11217109359554706,-0.03624579760505442,0.8886059216662846,-0.4055687062299716,-0.014638776406770599,-0.21372703920800395,1.3724,-0.1663999999999999,8.485113299999998,-0.051723559603373624,-0.37620026611346524,-0.2337559464324697,nan,nan,nan
9.168770168000265,1526838.3721549497,-4462986.899792815,4278788.6938034035,0.5867991162197378,-0.004336254040969656,-0.08764016019801857,0.8888190354931245,-0.40927025301931813,-0.015916975910532788,-0.20553645071662058,1.1324,0.19360000000000005,8.405113299999996,0.09335693446865503,-0.07731263170943631,-0.20212185374007247,nan,nan,nan
9.24198671000022,1526838.4153572032,-4462986.9001120655,4278788.687351021,0.6288364491219793,0.044069688791253,-0.10149774840990128,0.8896051420624063,-0.41054724943192616,-0.012016593330935677,-0.19977299427468073,1.2224,0.09360000000000007,9.305113299999997,0.002817979521449178,-0.16566992509164927,-0.09958376018540563,nan,nan,nan
9.319068210000296,1526838.46382024,-4462986.896715712,4278788.679528814,0.6804468720177033,0.06367448378241408,-0.0491465417601768,0.8890233906680918,-0.40925180995822796,-0.015535034343246283,-0.20471695131479684,1.4023999999999999,0.4736000000000001,10.175113299999998,-0.006999497521018926,0.14085352478985486,0.07931248814401315,nan,nan,nan
9.393152251000174,1526838.513930474,-4462986.892026524,4278788.675909509,0.5844994150674154,0.0608712782239646,0.06617022788620025,0.881567021143789,-0.42309957336496967,-0.014295836842970209,-0.20885872702799096,-0.49760000000000004,1.6336,10.605113299999998,0.40860703061013076,-0.05767767762450011,0.16112479683124736,nan,nan,nan
9.46969191800008,1526838.5587395628,-4462986.88735999,4278788.680982273,0.6071911534648782,-0.10639030407317135,0.1459203718295063,0.8817535268570228,-0.4219849737373685,-0.01936516932780815,-0.2099151985653404,0.13239999999999996,-0.19639999999999994,12.125113299999997,-0.00045451282604019,0.13430854009487614,-0.03304308245312181,nan,nan,nan
9.547665335000147,1526838.0159769095,-4462986.835263355,4278788.744674331,-0.05665060713062897,-0.0492561631846298,0.3466671259190664,0.8774219806060934,-0.4264217174672873,0.005855291494279659,-0.21968364285898317,0.38239999999999996,1.6736,9.315113299999998,0.25589072106062694,-0.11003755518432999,0.5134631395776026,42.40312,-71.113606,21.3
9.62220441799991,1526838.0115271814,-4462986.839132273,4278788.77190395,-0.03238937755350188,-0.023768516573496906,0.2404384190775556,0.8876707521408987,-0.4106492311932685,0.00016006585508686235,-0.2083454334744533,0.9524,-0.6364,8.715113299999997,-0.4335143334771332,0.09394780114250728,-0.37010979424452667,nan,nan,nan
9.722213668000222,1526838.009188721,-4462986.840848321,4278788.789263213,-0.04884293546603402,0.035214915786787676,0.17222660511436233,0.8871793767140521,-0.417834360026166,-0.006553772863124627,-0.1956636137170013,0.6724,-0.12639999999999993,8.515113299999998,0.22098413602074035,-0.02058943101962061,-0.3853814251994771,nan,nan,nan
9.795365877000222,1526838.0042823178,-4462986.837310889,4278788.806563835,-0.07527091474850597,0.11413985415347769,0.1827975832589817,0.8854467836071166,-0.4165317610356475,-0.005068530646503646,-0.20605726389085835,0.8024,0.8036000000000001,9.215113299999997,-0.015726143780990572,0.06558620079759941,0.2025763665661127,nan,nan,nan
9.871996167999896,1526837.9984949536,-4462986.828535004,4278788.8206186155,-0.1200048169792364,0.02909669656049549,0.23560056132283308,0.8876732063221987,-0.4127064442309572,0.010355564803511312,-0.20396674361830275,-0.1376,0.24360000000000007,10.935113299999998,-0.19462239211040935,-0.3576561428110255,0.10658325770642454,nan,nan,nan
9.945807959999911,1526837.9896218125,-4462986.826383597,4278788.838038892,-0.25076260012800355,-0.09382047793626239,0.26348883946682455,0.8884702654782116,-0.4133477219675008,0.013735725856766318,-0.1989361166236256,-1.1776,-0.02639999999999995,10.965113299999997,-0.013544482215997663,-0.14058081709423076,-0.08758462157794461,nan,nan,nan
10.022429834999912,1526837.9703736827,-4462986.833585105,4278788.858263867,-0.2830520505989657,-0.06312593537845748,0.3572635247089495,0.887515269435758,-0.40623295881546195,0.008030731639630568,-0.2173175961501706,1.0424,1.2736,10.195113299999997,-0.11826423733565743,0.3666554967666213,0.37165513785306337,nan,nan,nan
10.096397376999903,1526837.949489041,-4462986.838242773,4278788.88462411,-0.31933424780241243,0.042412289687278976,0.4112057294871159,0.8891866645287204,-0.4021510512217332,-0.016302774837541296,-0.21761394191293756,1.0224,1.4236,9.145113299999998,0.02681625673637121,0.6131832536108204,-0.26975336225485275,nan,nan,nan
10.173416210000141,1526837.9250188833,-4462986.834992776,4278788.916134257,-0.30061310947772885,0.12791090765741472,0.4846469328295295,0.8871206173088307,-0.40395141023658127,-0.020951358031813253,-0.22226405392425985,1.1524,1.1636000000000002,9.705113299999997,0.08790278055617275,0.1473985094848336,0.07167667266653796,nan,nan,nan
10.24703966800007,1526837.902709608,-4462986.825500177,4278788.952101158,-0.2817467127167055,0.19322090906926817,0.42083364852939004,0.8950591839643666,-0.389576859813583,-0.00785640375972228,-0.21688062379000514,0.7023999999999999,-0.23639999999999992,8.655113299999998,-0.5055091651218993,-0.2900246342962452,-0.041769728713093465,nan,nan,nan
10.323606335000022,1526837.8811865656,-4462986.81073975,4278788.984249255,-0.2702570637643785,0.24109829415688347,0.3436567936881047,0.8959668250786131,-0.3900080959819181,-0.009953749095981611,-0.21222171628462114,0.6724,-0.7764,8.675113299999998,0.013726287346413738,-0.0009544769346843989,-0.13558117600778866,nan,nan,nan
10.606634168000255,1526837.9472242284,-4462986.802249333,4278788.754199136,0.05239908967937296,0.2155567523168141,-0.10086206507489626,0.9611045469839217,-0.2534261528653024,-0.012930203710391476,-0.10902314066049466,1.0124,-0.7263999999999999,9.165113299999998,-1.1185560648849076,-0.08385761640441505,-0.7813529992456907,42.40312,-71.113606,21.3
10.683244292999916,1526837.9514307072,-4462986.784944931,4278788.746102161,0.08237882508176067,0.15377297533717,0.04911306813128424,0.9588929966670654,-0.2603809042687271,-0.04101302753872686,-0.10509014113564633,1.2624,-2.8564,11.295113299999997,0.2580723826256199,0.6295457153482672,-0.26320837755987403,nan,nan,nan
10.76755733500022,1526837.9575524975,-4462986.7735176515,4278788.749751884,-0.056469912777221326,0.4206382101615048,0.3468921727631446,0.9540173038927963,-0.2723590615417679,-0.057592693219286784,-0.11115128300520752,-0.5176000000000001,2.5636,10.805113299999997,0.3835179226127123,0.44192282075887673,0.06731334953655213,nan,nan,nan
10.839854127000308,1526837.9529069718,-4462986.7389136385,4278788.778289141,-0.09678012186931328,0.5991446190100803,0.4423772064171683,0.9536094845980779,-0.2797342892902347,-0.04579140556599847,-0.1013944081935147,0.2724,-0.06639999999999993,9.255113299999998,0.155534289070953,-0.3576561428110255,-0.13667200679028513,nan,nan,nan
11.213372876999983,1526837.9168252414,-4462986.515539519,4278788.943216966,-0.7676675240575411,1.2677043184632613,0.9076072463440661,0.9584396365760124,-0.26125577520631643,-0.07403092235878866,-0.08751174808471243,-0.8176000000000001,0.013600000000000056,9.325113299999998,-0.0830304030610219,0.13256321084288183,-0.12052771120933761,nan,nan,nan
11.28784808499995,1526837.8591396008,-4462986.420279092,4278789.011418244,-0.6700751717009283,1.4133705555988263,1.004537570658706,0.9601702217264242,-0.24805432138130634,-0.0900408987793496,-0.09184136354411902,1.7724,-0.5763999999999999,9.815113299999998,-0.3200679320975018,0.46592109797379877,-0.0308614208881289,nan,nan,nan
11.36297737699988,1526837.8088213946,-4462986.314144327,4278789.0868523605,-0.7598546537496015,1.63621509498308,1.203368115745943,0.957369373578935,-0.25972899450421943,-0.10034197054671017,-0.0769169776476861,-0.9276,1.0736,10.005113299999998,0.37806376870023,0.14303518635484777,-0.4148338563268814,nan,nan,nan
11.539449627000067,1526837.6749292107,-4462986.025830751,4278789.298894999,-0.6745691004456842,2.193861433909944,1.1610818029975876,0.9525668805330254,-0.2727270983040524,-0.10815211245162959,-0.08086648929704636,1.0324,-0.14639999999999995,7.8151132999999975,0.15771595063594593,0.09067530879501791,0.03895174919164428,nan,nan,nan
11.617806542999915,1526837.9719019579,-4462986.614852804,4278788.683260373,-0.20599547836494153,1.337376275457673,0.5000901255785362,0.9439895461773096,-0.2995366829721742,-0.11937894271729779,-0.0700726826547355,0.0023999999999999577,-1.0264,10.775113299999997,-0.1346266990731043,-0.11440087831431582,-0.029770590105632443,42.40312,-71.113605,21.3
11.714525918000163,1526837.9557593025,-4462986.510050482,4278788.722449498,-0.2657472341370509,1.4400368943247437,0.7035145553089688,0.9374411245154555,-0.318072308660712,-0.11629026242092028,-0.08068903242240033,-1.2976,0.7736000000000001,10.755113299999998,0.4587852466049678,-0.006408630847166679,0.34765686063814133,nan,nan,nan
11.79076975199996,1526837.9296320975,-4462986.368471815,4278788.791616235,-0.2026055288067055,1.303917395713503,0.8311550196589491,0.9404545044048614,-0.30446977207453774,-0.13474691314119971,-0.06845986410408766,-0.3076,-1.8263999999999998,11.655113299999998,-0.21971150010782786,0.28811568042687646,-0.3897447483294629,nan,nan,nan
11.865146627000286,1526837.9145579087,-4462986.271458189,4278788.853455553,-0.1268295395787282,1.4323349405966788,0.8787611077337197,0.9382298179132351,-0.3109998616650836,-0.13277570078977852,-0.07331104050091529,0.5924,0.0036000000000000754,9.475113299999997,0.16207927376593173,-0.014044446324641871,0.16657895074372964,nan,nan,nan
12.041733085000033,1526837.8921679978,-4462986.018600283,4278789.008588049,-0.0045783466676949935,1.6856477442782145,0.9878717895450307,0.9267036651375107,-0.3490717894117514,-0.1206718280751293,-0.06933623384159396,0.23239999999999997,-0.11639999999999992,9.525113299999997,0.44133195408502446,-0.1569432788316776,0.06731334953655213,nan,nan,nan
12.116770627000278,1526837.8918253218,-4462985.892434467,4278789.08252737,-0.0367845364256483,1.737845475768494,1.030063941927418,0.9257348776931051,-0.3553241661931172,-0.1123037083477239,-0.06440148127019031,-0.7276,0.08360000000000006,9.615113299999997,0.16426093533092465,-0.26166303395133733,-0.02213477462815725,nan,nan,nan
12.192650418000085,1526837.8890291147,-4462985.760330695,4278789.160828539,0.0435177568145273,1.7316474362400116,1.0635488881869368,0.9282494474591608,-0.3511835412261919,-0.10446278228814815,-0.06411404945065284,0.7624,-0.5164,10.415113299999998,-0.1368083606380972,-0.1940315254365571,0.04986005701660884,nan,nan,nan
12.267291043000114,1526837.8922902013,-4462985.630566374,4278789.240527614,0.07917257832798763,1.7034925724277579,1.1476977419113483,0.9308400926841257,-0.3488636768035467,-0.09227086113574512,-0.05759293012978343,0.19239999999999996,-0.36639999999999995,10.945113299999997,-0.0844484830782673,-0.36638278907099714,-0.0581321904505403,nan,nan,nan
12.341714502000286,1526837.8981687916,-4462985.504081482,4278789.325744554,0.07393742296404654,1.7646526534406157,1.295732205155025,0.9308223644536014,-0.3399186242478999,-0.11064125966605334,-0.07604976619739201,0.052399999999999974,1.0636,10.695113299999997,-0.24152811575775696,0.6480898386507069,0.26802621351590006,nan,nan,nan
12.416412959999889,1526837.903662915,-4462985.372954113,4278789.422027499,0.20777024957593046,1.8664363876561283,1.355653199935024,0.9297512501019394,-0.3359324825864397,-0.12231366515556165,-0.08804173981784086,1.6623999999999999,0.39360000000000006,9.965113299999997,-0.10190177559821059,0.41356122041396887,0.18403224326367293,nan,nan,nan
12.492176002000178,1526837.9195344844,-4462985.230377038,4278789.525585847,0.1847491944286327,2.0481422097434354,1.4349043907201813,0.9287304145817907,-0.3375143036326574,-0.12373167617064731,-0.09074351074785661,-0.4376,1.3836,8.975113299999997,0.04208788769132159,0.05795038532012422,0.0607683648415734,nan,nan,nan
12.566674294000222,1526837.93328967,-4462985.07788611,4278789.632419202,0.26293117548773576,2.1757550062566375,1.3385878221879208,0.9324342707760109,-0.32839175065746645,-0.12295815055293596,-0.08721515093079557,1.0424,-0.7163999999999999,8.035113299999997,-0.25134559280022506,-0.04131521588705327,-0.1203095450528383,nan,nan,nan
12.64659416900031,1526838.2569320477,-4462986.35309781,4278788.737151366,0.6417928489503669,0.7099285012785197,0.094993220216117,0.9135070300941154,-0.3738904936658599,-0.14893936205432634,-0.059395889609681035,0.6024,-0.8064,9.015113299999998,0.01590794891140665,0.2772073726019119,0.00949931806423997,42.403121,-71.113601,21.3
12.729474584999934,1526838.3059360334,-4462986.2988913385,4278788.744404557,0.701149426066989,0.7185152531347604,0.0718425806698238,0.9153368305095413,-0.37052957788532365,-0.14506168398526068,-0.06183386629492112,0.042399999999999965,-0.37639999999999996,9.735113299999998,-0.11390091420567161,-0.07076764701445758,0.0804033189265096,nan,nan,nan
12.803755335000005,1526838.3650866353,-4462986.238275715,4278788.750465365,0.734868847393346,0.6080380569085746,0.11818411412235713,0.912095512481064,-0.3801089874354139,-0.13790319759694983,-0.06768783075275223,-0.7676000000000001,-0.8863999999999999,11.135113299999997,0.20571250506578997,-0.10676506283684062,0.22766547456353117,nan,nan,nan
12.883867919000295,1526838.4239812596,-4462986.189545697,4278788.7599369995,0.7744564521961842,0.4851968097694064,0.2039710911426375,0.9158896150658672,-0.3719944151414596,-0.14080000714533214,-0.054237686737935255,-0.7476,-0.4663999999999999,11.685113299999998,-0.16953328411299087,-0.06095016997198948,-0.3679281326795338,nan,nan,nan
12.958748710000236,1526838.4819725587,-4462986.153214159,4278788.7752103545,0.8318988528998824,0.4558208498143166,0.21427280652048752,0.91846438763049,-0.3646747737324079,-0.14073397495229778,-0.06024472515199271,0.022399999999999975,-0.47639999999999993,10.365113299999997,-0.22734731558530305,0.059041216102620676,0.11640073474889265,nan,nan,nan
13.036789418999888,1526838.546926944,-4462986.117623819,4278788.791940704,0.8593736463668316,0.4850056951592965,0.21662905477354044,0.9163616674990573,-0.3659145193642513,-0.1568214972825076,-0.04236599348057008,-0.23760000000000003,-0.1663999999999999,9.655113299999998,0.13808099655100972,0.2172116795646068,-0.5631868427463994,nan,nan,nan
13.111083252000299,1526838.6107518729,-4462986.0816028705,4278788.808029555,0.9020002320134634,0.5984921792698376,0.08970283643112809,0.9113483904526058,-0.38246542947785644,-0.14930727362457064,-0.02952363584161583,0.48239999999999994,-0.4164,7.7751132999999975,0.5035093086873225,-0.3096595883811814,-0.16721526870018588,nan,nan,nan
13.187402419000136,1526838.6795668614,-4462986.035942979,4278788.814873123,0.9047098801221862,0.6231037226542455,-0.017410054308275025,0.9088979856633647,-0.38912825825803676,-0.1467785233720932,-0.030654786177690317,-0.12760000000000005,-0.7864,8.645113299999998,0.17735090472088214,-0.04458770823454264,0.0804033189265096,nan,nan,nan
13.261787835000177,1526838.746829402,-4462985.989617035,4278788.813578736,0.9383272678627694,0.553244841086676,-0.06414390208745396,0.9110751132142415,-0.38935413113999773,-0.13313266070764854,-0.0249237608623512,-0.10760000000000003,-0.9663999999999999,10.165113299999998,-0.00590866673852247,-0.40238020489338017,0.0018635025867647789,nan,nan,nan
13.339064085000246,1526838.8193266778,-4462985.946872094,4278788.808622834,0.9023668324611537,0.5368099552671476,0.09792942642900221,0.9099860669255899,-0.39347074290914924,-0.1281715619559465,-0.026041961107760914,-1.1876,1.4336,11.215113299999997,0.10099274994613022,-0.10458340127184772,0.09131162675147417,nan,nan,nan
13.412521751999975,1526838.8856518809,-4462985.907415824,4278788.8158207815,1.00284215339767,0.4538431595999053,0.18475922157703362,0.9104504075447977,-0.3882526806599128,-0.13776913873782728,-0.0368724331999943,0.7424,0.33360000000000006,11.725113299999997,-0.16516996098300504,0.35574718894165674,0.14694399665879343,nan,nan,nan
13.489528918999895,1526838.9629016062,-4462985.872455926,4278788.830052931,1.1422291334014165,0.5444148486229965,0.17238978890809548,0.9122553710719693,-0.3791168210350716,-0.14464874714548082,-0.05601173506145922,1.5624,0.8436,9.375113299999997,-0.29606965488257975,0.35792885050664963,0.3487476914206378,nan,nan,nan
13.563947419000215,1526839.0470857015,-4462985.832331689,4278788.842758331,1.1572549287829843,0.5694630753517445,0.24859359583228358,0.9020001652462802,-0.3968097589102587,-0.15975621385010036,-0.05844373210442359,-0.6476000000000001,0.8336,10.305113299999997,0.5569600170296488,0.4124703896314724,-0.010135636020696236,nan,nan,nan
13.640347544000178,1526839.1359483658,-4462985.788604067,4278788.861847201,1.2132932273687387,0.6682582741371444,0.14770708839306146,0.9103388536525945,-0.37973638621890127,-0.15300623966111462,-0.060601482600693334,0.32239999999999996,0.18360000000000007,8.265113299999998,-0.5065999959043958,-0.1449441402242166,0.03677008762665137,nan,nan,nan
13.728344460000244,1526838.706458843,-4462983.984725221,4278790.884459369,0.772151003688331,2.734889329729177,2.1568586543811383,0.94017061482557,-0.30336122482605765,-0.10457653559015936,-0.11452043944751042,1.3424,-2.0163999999999995,8.045113299999997,-0.13571752985560073,-0.21257564873899687,-0.13121785287780283,42.403151,-71.113586,21.3
13.803142793999996,1526838.7749972502,-4462983.741968354,4278791.075908523,0.7731806098802291,2.8695861482027554,2.2557892264053834,0.934706279090193,-0.3118363469455649,-0.11857882863263514,-0.12256152132651876,-0.22760000000000002,0.023600000000000065,9.675113299999998,0.23407410541069784,0.34265721955169925,0.10876491927141746,nan,nan,nan
13.875247084999955,1526838.830818539,-4462983.534792961,4278791.238769646,0.7872552833910597,2.893189290546244,2.3854687205405414,0.9388647134209924,-0.3002120057225012,-0.1184237290334462,-0.11992340251823694,-0.8076000000000001,-0.3064,10.905113299999998,-0.32879457835747344,-0.0009544769346843989,-0.11921871427034184,nan,nan,nan
13.951078544000211,1526838.8905234546,-4462983.315375415,4278791.419682003,0.7984883931377916,2.894257269401986,2.4801820554402267,0.9375273859914469,-0.3066048945866235,-0.10940617605173215,-0.1227441580282117,-0.8575999999999999,-1.1363999999999999,10.615113299999997,0.13153601185603098,-0.2169389718689827,0.1654881199612332,nan,nan,nan
14.025925001999894,1526838.9503029205,-4462983.098694552,4278791.605362796,0.7292319867128491,2.886499911206209,2.7069559418562954,0.939796608407462,-0.2936645715889499,-0.12762955877635737,-0.11939074713984164,-1.9776,0.13360000000000005,11.805113299999997,-0.2731622084501542,0.4648302671913023,-0.2784800085148244,nan,nan,nan
14.10017716900029,1526839.0044304382,-4462982.884443013,4278791.8062876165,0.8481005785550398,2.9563753145632385,2.7812602270284588,0.9441000153510957,-0.2769693780786193,-0.14257676043899878,-0.10786562269913207,0.6424,-0.8764000000000001,10.355113299999998,-0.3691553173098423,0.32629475781425243,-0.4813745340591652,nan,nan,nan
14.174715959999958,1526839.0676799058,-4462982.663963073,4278792.01370786,0.8750025216954712,3.1435482706665168,2.8193489418962288,0.9429529015229046,-0.28934880464409296,-0.13829994438342658,-0.0893880344389471,-0.18760000000000004,0.033600000000000074,8.765113299999998,0.38024543026522295,-0.27693466490628776,-0.3853814251994771,nan,nan,nan
14.250778252000146,1526839.134466114,-4462982.424025857,4278792.228899955,0.871874902128507,3.346054354710362,2.8518581066417568,0.9404820824538873,-0.3034297464004404,-0.12763223003166183,-0.08446215718566519,-0.3376,0.38360000000000005,8.495113299999998,0.35951964539779024,-0.3249312193361318,0.016044302759218705,nan,nan,nan
14.325587669000015,1526839.1994041195,-4462982.174808801,4278792.441308842,0.8626902424387577,3.4447845843668605,2.8752987292096424,0.9382530224659069,-0.3123442800215167,-0.11891558707055734,-0.08933868299814299,-0.49760000000000004,-0.5064,9.105113299999998,0.20680333584828645,-0.19294069465406066,0.2298471361285241,nan,nan,nan
14.40187254400007,1526839.2651501389,-4462981.912280187,4278792.660436678,0.8237622057480856,3.480342760800466,2.933624891970096,0.9406879300200855,-0.31176861199579264,-0.10135535799372195,-0.0873707207905192,-1.0276,-0.7263999999999999,9.845113299999998,-0.06917685212331691,-0.45474008245321007,0.0880391344039848,nan,nan,nan
14.476108960000147,1526839.3264120293,-4462981.653452609,4278792.878605714,0.8096280218754456,3.546795206422088,3.0140735626426722,0.9443087396263837,-0.3030213841040146,-0.09190511696546051,-0.08951254142984537,-0.3276,-0.2764,9.955113299999997,-0.2797071931451329,-0.21039398717400395,0.10112910379394227,nan,nan,nan
14.552250626999921,1526839.3882310758,-4462981.3826375045,4278793.108744924,0.8591769413586069,3.5932523736910142,3.21837981548552,0.9408299267193795,-0.29959521668716516,-0.1092941771786753,-0.11461473953624313,0.38239999999999996,0.13360000000000005,11.575113299999998,-0.0768126676007921,0.645908177085714,0.4829198776677019,nan,nan,nan
14.626873460000297,1526839.452386391,-4462981.114326953,4278793.349063491,0.9730984905396585,3.745948549346733,3.3195554481316925,0.940856729858148,-0.29171901530073735,-0.11660849480385051,-0.12685065821243005,1.2324,0.2936000000000001,9.995113299999998,-0.21207568463035265,0.3066598037293162,0.22657464378103473,nan,nan,nan
14.713581835000241,1526839.526493315,-4462980.8290519,4278793.601866311,1.0045960669685474,3.919981602620763,3.4656551990980438,0.9387422382276529,-0.29936855229257703,-0.11578925775443155,-0.1254365513357555,-0.04760000000000003,0.8236,10.025113299999997,0.20680333584828645,-0.05004186214702492,0.0018635025867647789,nan,nan,nan
14.797278544000164,1526839.1727959476,-4462982.540894755,4278792.374590716,0.6216145045273354,1.721637676910941,1.6614935649695004,0.9239270539631353,-0.36190458657471763,-0.10772154824816921,-0.06148119851587529,0.5324,-1.1064,8.325113299999998,-0.24480060810524634,-0.2976604497737204,-0.35047484015959046,42.403165,-71.113576,21.3
14.8699365020002,1526839.220127981,-4462982.409802878,4278792.501102997,0.6309422062931498,1.8515959509087756,1.5877416196704917,0.9195287058008484,-0.3719949338210901,-0.11126200039480134,-0.06088921287513155,0.5324,0.0036000000000000754,8.005113299999998,0.2940697984480029,0.07649450862256398,-0.012317297585689148,nan,nan,nan
14.94651845999988,1526839.2685954627,-4462982.267567675,4278792.623069537,0.6449728413386946,1.8994872388617998,1.5328765950377505,0.92238190300335,-0.3660264349291959,-0.11226892033255614,-0.05130267077891763,0.2924,-0.4164,8.925113299999998,-0.141171683768083,-0.0674951546669682,-0.2610267159948811,nan,nan,nan
15.020302835000166,1526839.316207734,-4462982.127346419,4278792.736227381,0.6554445260817969,1.7362645270482293,1.5736598086231703,0.9184648680510029,-0.3702481879377492,-0.1232206347607892,-0.06446116048258133,-0.4076000000000001,-1.6964,11.685113299999998,0.11953687324856997,0.41028872806647954,0.23857378238849575,nan,nan,nan
15.096931460000178,1526839.366445017,-4462981.99426847,4278792.856842307,0.7092984456211872,1.573553835810075,1.5794749824128527,0.9236441977810833,-0.3580095356440303,-0.12516540038448534,-0.055174191399804416,-0.1476,-1.8663999999999998,11.445113299999997,-0.3102504550550337,-0.03913355432206036,-0.28938831633978895,nan,nan,nan
15.171167294000043,1526839.4190874042,-4462981.877483172,4278792.974067058,0.66041393446992,1.550189275356197,1.7108260723572721,0.9227533689123271,-0.35886757344939807,-0.13373836958516805,-0.043061977949676,-1.3576,0.3536000000000001,11.065113299999998,0.08353945742618693,0.0983111242724931,-0.37992727128699477,nan,nan,nan
15.247573918999933,1526839.4695260508,-4462981.759088564,4278793.104730189,0.6498097608786464,1.5449376620456885,1.7474556737942888,0.9229904287145643,-0.3552380883177082,-0.14516548059675155,-0.028662744277977686,-0.6276,-0.2964,10.125113299999997,-0.026634451605955133,0.14412601713734424,-0.46828456466920776,nan,nan,nan
15.321783502000017,1526839.517720004,-4462981.644506331,4278793.234332424,0.7144537176775982,1.6531894513472913,1.6796054176435944,0.9228667823436396,-0.35730005397710085,-0.1432354382054622,-0.01171252634972506,0.8224,-0.07639999999999994,8.435113299999998,0.11735521168357706,-0.2114848179565004,-0.3951989022419452,nan,nan,nan
15.399206377000155,1526839.5730541765,-4462981.516467428,4278793.3644172335,0.6989025915911438,1.7710359041381,1.6579415642396114,0.9186329746745091,-0.36991526295511284,-0.13866879347742006,-0.006864571783791242,-0.22760000000000002,0.40360000000000007,8.535113299999997,0.3562471530503009,-0.14167164787672723,-0.02540726697564662,nan,nan,nan
15.472511461000067,1526839.6243236905,-4462981.386549251,4278793.48603913,0.6715943855873714,1.8323385844234577,1.6781697156383117,0.9165021245130885,-0.37857762848754056,-0.1286126100727718,-0.012713459747829624,-0.5176000000000001,0.5036,9.325113299999998,0.21443915132576163,-0.18639570995908192,0.2811161829058575,nan,nan,nan
15.549668502000259,1526839.6761637528,-4462981.245111877,4278793.61557628,0.6598164836266536,1.8277565553718689,1.676869003651821,0.9197154749279771,-0.3734102480357072,-0.11827927969342389,-0.026424314406765247,-0.2076,-0.1663999999999999,9.795113299999997,-0.203349038370381,-0.1198550322267981,0.40874338445794284,nan,nan,nan
15.62334683600011,1526839.7247589347,-4462981.110498444,4278793.739076914,0.626557255384546,1.7033225925146371,1.6792058086174457,0.9234012225741719,-0.3639179467162092,-0.11904622528722825,-0.02686832722726441,-0.6476000000000001,-1.4664,10.865113299999997,-0.2753438700151471,0.01868047715025181,-0.029770590105632443,nan,nan,nan
15.721317919000285,1526839.7730038953,-4462980.979342463,4278793.868375901,0.6035881903215996,1.6885222716457255,1.7244559196928915,0.9175206500437082,-0.3750568191996009,-0.12927369696082142,-0.02786666370552275,-0.41759999999999997,-0.20639999999999994,10.265113299999998,0.3267947219228966,0.26520823399445087,-0.03413391323561827,nan,nan,nan
15.804526001999875,1526839.485095125,-4462982.181126366,4278792.881839264,0.12238789325142696,0.04444336577213659,0.5017473599378997,0.8798452472201482,-0.45331024388824664,-0.1426641315349397,0.005395355430568995,-1.0976000000000001,0.40360000000000007,10.645113299999998,0.6136832177194645,0.25866324929947215,-0.3155682551197039,42.40317,-71.113571,21.3
15.87912100199992,1526839.4947254816,-4462982.177629244,4278792.921320342,0.07869031914933208,0.030086316268290836,0.445757577725556,0.8809414696473077,-0.451380817970624,-0.14123788874046703,0.015790616349392272,-0.6376000000000001,0.8036000000000001,9.295113299999997,-0.017907805345983484,-0.15585244804918116,-0.22284763860750514,nan,nan,nan
15.953053086000182,1526839.5005657524,-4462982.175396285,4278792.954403764,0.11301513447697262,0.04386792061480793,0.22470808226914918,0.8870164251992048,-0.44203870027788933,-0.13092824208761378,0.025718570412280917,1.0724,-0.6364,7.995113299999997,-0.253527254365218,-0.39256272785091206,-0.14321699148526384,nan,nan,nan
16.02963683600001,1526839.5091859724,-4462982.172050263,4278792.971543354,0.09212550963144844,-0.012643166242513493,0.09165768246453432,0.8950511927544692,-0.4257337856209549,-0.12828636354350356,0.03430328869340703,0.2224,-0.49639999999999995,9.235113299999998,-0.4411501489546084,-0.19948567934903938,-0.21957514626001579,nan,nan,nan
16.104126585999893,1526839.516048294,-4462982.172992038,4278792.978370828,0.0537866651513246,-0.17548932452676513,0.07389644969901882,0.896541952901933,-0.4196881618568451,-0.13326328581901004,0.04811725982927582,-0.3176,-0.6264,11.185113299999998,-0.11935506811815388,-0.04895103136452846,-0.40828887163190264,nan,nan,nan
16.17589450200012,1526839.5199256851,-4462982.1856427705,4278792.9836979,-0.05685545812420985,-0.24178801579462617,0.10697325341746056,0.8964916604958199,-0.42283599280457795,-0.11540474828482714,0.06476241564732026,-1.3976,0.39360000000000006,10.435113299999998,0.16426093533092465,-0.6336363307826288,-0.19448603826259728,nan,nan,nan
16.353284836000057,1526839.5098393161,-4462982.228536861,4278793.002675352,-0.45721724451949236,-0.5806002876990211,0.3804104894274887,0.887026512572856,-0.4156458282882575,-0.17849619023755708,0.09252903353450456,-1.8876000000000002,0.5236000000000001,11.805113299999997,-0.0375427594309197,0.5128268216211463,-0.598093427786286,nan,nan,nan
16.427656251999906,1526839.4759974866,-4462982.271511128,4278793.030832179,-0.42854408392946786,-0.5398398602938361,0.31927756322678813,0.8862393103796365,-0.4149747803346308,-0.17456869667206254,0.10909439547022995,0.3324,0.9136000000000001,8.925113299999998,0.08244862664369047,-0.2780254956887842,-0.3581106556370657,nan,nan,nan
16.504139876999943,1526839.4431833304,-4462982.312847341,4278793.055279661,-0.437616624412113,-0.5696596783154396,0.168172878642443,0.8861855806336683,-0.41608438757246785,-0.16388553786042578,0.12120408463561691,0.5324,-0.5863999999999999,8.845113299999998,0.11190105777109478,-0.3751094353309688,-0.1595794532227107,nan,nan,nan
16.577860836000127,1526839.410761992,-4462982.355051244,4278793.067738945,-0.49525994919818017,-0.5884848900744026,0.08921568751358827,0.8832287117291014,-0.4270398761706045,-0.1446671544978598,0.12890074438801796,-0.17760000000000004,-0.016399999999999942,9.145113299999998,0.39224456887268394,-0.49728248297057187,0.0705858418840415,nan,nan,nan
16.654675460999897,1526839.3727884716,-4462982.400172685,4278793.074579461,-0.5136206860756831,-0.5941252775045601,-0.005726022432638089,0.8878679915112782,-0.4198602777872583,-0.1361572166917253,0.1298806747966914,0.7023999999999999,0.4236000000000001,8.975113299999997,-0.18480491506794125,-0.24857306456137993,0.0607683648415734,nan,nan,nan
16.73942596100005,1526839.3348047885,-4462982.444109907,4278793.074156005,-0.711405882905966,-0.7457827059622093,0.02496670423824998,0.8873012879757621,-0.4211949913795878,-0.13439546152419715,0.13125952945118602,-1.7375999999999998,-0.5863999999999999,11.195113299999997,0.04972370316879678,-0.05113269292952138,-0.010135636020696236,nan,nan,nan
16.818831711000257,1526840.4419992485,-4462983.338056943,4278791.615835152,0.578828904342443,-1.9093837353990382,-1.7103229225208096,0.864934463358532,-0.4599394931791104,-0.17366878662522017,0.10091179226285389,0.38239999999999996,0.10360000000000005,9.875113299999997,-0.15317082237554402,0.029588784975216366,-0.16394277635269652,42.403153,-71.113563,21.4
16.996623836000254,1526840.5472187668,-4462983.685144719,4278791.304932651,0.6573605983671992,-1.9873275905827108,-1.665389248338679,0.878277382575367,-0.42063219832236826,-0.18661493681243094,0.1298932596645917,-0.03760000000000002,2.0936000000000003,10.165113299999998,-0.40078941000223955,-0.0925842626643867,-0.4017438869369239,nan,nan,nan
17.070729544000187,1526840.5958191068,-4462983.8320729,4278791.181806191,0.616204325286119,-2.081176000969205,-1.865319445731663,0.8779746131212328,-0.41754420300645,-0.18570109534808507,0.14259214913030102,0.4724,-1.5864,9.035113299999997,-0.002636174391033102,-0.17548740213411737,-0.3079324396422287,nan,nan,nan
17.147602001999985,1526840.6431029295,-4462983.991769859,4278791.0386727685,0.5792224154026097,-2.071746649187153,-1.961287518450263,0.8741836858204005,-0.4207976766794374,-0.18264117485910103,0.15929344163988912,-0.08760000000000001,0.2936000000000001,8.795113299999997,0.2078941666307829,-0.2213022949989685,-0.34720234781210113,nan,nan,nan
17.221141294000063,1526840.6858656416,-4462984.14472234,4278790.893875241,0.5997631439815916,-2.114133860822951,-2.0572793930457705,0.8758975030623162,-0.41138481877167193,-0.1817143816695555,0.17477408007080478,0.8324,0.3136000000000001,9.455113299999997,-0.16189746863551568,-0.24748223377888345,-0.3951989022419452,nan,nan,nan
17.298266211000282,1526840.732058599,-4462984.307550109,4278790.735426327,0.5641176546303855,-2.215734644814246,-2.0916416257470303,0.8843173077346316,-0.39046005957888097,-0.16699120220245597,0.19400458772501886,0.07239999999999996,0.0036000000000000754,10.405113299999998,-0.4084252254797147,-0.6750879005174941,-0.34065736311712236,nan,nan,nan
17.37178971100002,1526840.7736097898,-4462984.470754385,4278790.581362366,0.4465181717986497,-2.3922314432207057,-2.015933724902159,0.8765708204348428,-0.3946515054133098,-0.1909538341366113,0.19852057783128885,-0.7976000000000001,-0.5963999999999999,11.975113299999997,0.07699447273120819,0.5848216532659125,-0.3842905944169806,nan,nan,nan
17.448783794000065,1526840.8079703678,-4462984.654841977,4278790.42623173,0.44632431310430104,-2.3900440237346716,-2.0644326751756195,0.871479135219495,-0.39587326540381684,-0.19055734394093932,0.2179366280424681,0.39239999999999997,0.6936000000000001,9.335113299999998,0.17844173550337858,-0.17657823291661381,-0.45846708762673966,nan,nan,nan
17.522642043999895,1526840.8409199256,-4462984.831285184,4278790.273826536,0.34373534116009197,-2.4671622037379346,-2.099131515824703,0.8617766515661143,-0.40496899630097655,-0.200648077972337,0.23039414969401675,-0.49760000000000004,-0.4364,10.025113299999997,0.3235222295754072,0.20848503330463514,-0.41265219476188847,nan,nan,nan
17.90915833600002,1526841.770568969,-4462983.5797634935,4278791.317441159,0.8648870105183603,-0.27173625387889455,-0.2732729509561618,0.8647505706268015,-0.2819373330809078,-0.23479164779552913,0.3429149654040386,-0.39760000000000006,-0.02639999999999995,8.795113299999997,-0.029034279327447343,-0.08167595483942214,-0.3222223228929323,42.40315,-71.113548,21.5
17.983115503000136,1526841.846482444,-4462983.60361452,4278791.293455252,0.8087458603677065,-0.2612946343427701,-0.156064952163955,0.8484670408888431,-0.30393977306919107,-0.26424676616563675,0.3433626974494006,-0.5476,-0.24639999999999992,10.535113299999997,0.3104322601854497,0.8368035640225938,-0.20757600765255477,nan,nan,nan
18.06191879400012,1526841.9102842368,-4462983.624228,4278791.281143321,0.8893685958443915,-0.32304085800505866,-0.1361312653708362,0.8343605251575684,-0.31489848204670196,-0.27734953374132487,0.3574334857755856,0.8124,0.37360000000000004,10.765113299999998,0.32461306035790366,0.3633830044191319,-0.4530129337142573,nan,nan,nan
18.13581312799988,1526841.9756834744,-4462983.647982634,4278791.271132982,0.9383306457526334,-0.22232208215181903,-0.0860824496931914,0.8315698269740709,-0.31560259634074256,-0.26941196629285463,0.36919346828493643,-0.9276,1.7136,9.405113299999998,0.20571250506578997,-0.2529363876913657,-0.22066597704251223,nan,nan,nan
18.21273708600029,1526842.0478842258,-4462983.665089419,4278791.264509286,0.9233173550312264,-0.15324118667699843,-0.18574642686561144,0.8336222925385846,-0.2917375257422429,-0.2804520557524426,0.37591187057272407,0.2724,0.27360000000000007,8.255113299999998,-0.5916847969391192,-0.05985933918949302,-0.38319976363448416,nan,nan,nan
18.28689271100029,1526842.1162265218,-4462983.676432057,4278791.250760668,0.877665159383837,-0.12549031557131252,-0.2609965838757978,0.8297030861581385,-0.2851151542260942,-0.2865494206050492,0.38495657905528624,0.12239999999999998,-0.6364,8.705113299999997,-0.1117192526406787,0.028497954192719912,-0.34174819389961886,nan,nan,nan
18.364503753000008,1526842.184376161,-4462983.686176228,4278791.230494599,0.8789227861600117,-0.11492698535856172,-0.31830710371560084,0.8294535249729204,-0.27580208489565994,-0.2869538470105977,0.3919152333346714,0.38239999999999996,-0.25639999999999996,9.215113299999997,-0.14989833002805467,-0.13294500161675557,-0.22284763860750514,nan,nan,nan
18.437177003000215,1526842.2485756478,-4462983.694570883,4278791.207244374,0.8928052144078167,-0.13598723618241015,-0.30986008191964276,0.824690788663907,-0.27093946004873887,-0.28731002950457707,0.4048825256592674,0.19239999999999996,-0.24639999999999992,10.125113299999997,0.02354376438888184,-0.10458340127184772,-0.38647225598197354,nan,nan,nan
18.514423294000153,1526842.316952586,-4462983.704985687,4278791.183513236,0.9814558666374781,-0.09985982854190534,-0.24739307959386125,0.8231935586493839,-0.2653086547256071,-0.2854534728221901,0.4128922355001972,-0.10760000000000003,1.1236000000000002,10.335113299999998,-0.030997774735940956,-0.1449441402242166,-0.21739348469502287,nan,nan,nan
18.58806137800002,1526842.3895752076,-4462983.712374793,4278791.165207437,1.0041356750135733,-0.11696529917871468,-0.06296270832815343,0.8128282598634892,-0.2736211733832593,-0.31003568286548144,0.4102676557450542,-1.2176,0.36360000000000003,11.765113299999998,-0.03536109786592678,0.7386287935979128,-0.1693969302651788,nan,nan,nan
18.66472429400028,1526842.4665358057,-4462983.721339438,4278791.160381747,1.0787448866033515,-0.1441122694101563,-0.07915515623213332,0.8097210135465649,-0.26243136255569177,-0.3130664085053695,0.4212731709836062,0.48239999999999994,0.2936000000000001,10.175113299999998,-0.15862497628802633,-0.10894672440183353,-0.37883644050449833,nan,nan,nan
18.748960419000014,1526842.5465175027,-4462983.732024396,4278791.154512923,1.1372041518487355,-0.08442215517751012,-0.008817487913639677,0.8024802823812573,-0.26591011933682135,-0.31817407999119524,0.42904831919269687,-0.9676,0.8036000000000001,10.095113299999998,0.13480850420352034,0.1572159865273017,-0.2588450544298882,nan,nan,nan
18.825022211000032,1526842.644501429,-4462983.739298388,4278791.153753189,1.0473673614105679,-0.05488881649408156,-0.035517802721962144,0.7979039647177982,-0.2461170911158325,-0.3161519277023549,0.4503594117092829,-0.7176,-1.1064,9.055113299999997,-0.16298829941801213,-0.332567034813607,-0.576276812136357,nan,nan,nan
18.899522585999875,1526842.7227722392,-4462983.743400284,4278791.151098909,0.9584341408908155,0.021973116393158187,-0.03149890230026253,0.7879879241693061,-0.2471791877954701,-0.3112637991347946,0.47020456015338774,-1.1076,-1.0264,8.795113299999997,0.31479558331543556,-0.13839915552923787,-0.5021003189265979,nan,nan,nan
18.97765858599996,1526842.391140572,-4462983.727408142,4278790.833606835,0.48689002182013635,-0.09324428304845703,-0.21204505205782673,0.7875889463689264,-0.2489703867149249,-0.3017190150011758,0.4761124180694854,-0.49760000000000004,-0.9563999999999999,9.195113299999997,-0.07135851368830982,-0.22784727969394725,-0.45846708762673966,42.403143,-71.113543,21.5
19.050946753000062,1526842.4284228166,-4462983.734548063,4278790.817370078,0.394013537888478,-0.12471928177281502,-0.0868496830765165,0.7805169602354004,-0.24935117052542477,-0.3118852305630523,0.48098323469313325,-1.1076,-1.1864,10.925113299999998,-0.034270267083430325,0.23793746443203945,-0.251209238952413,nan,nan,nan
19.12708383600011,1526842.458334272,-4462983.744016102,4278790.810776902,0.41838445642910704,-0.13703326136572871,0.06152229771427012,0.7720361846327736,-0.24187972213024975,-0.3168970943561862,0.4950056179329853,-1.1376,0.2836000000000001,11.325113299999998,-0.046269405690891344,-0.014044446324641871,-0.49010118031913685,nan,nan,nan
19.20095858600007,1526842.489573488,-4462983.7542478675,4278790.815370544,0.4390840475861658,-0.14586588881947884,0.10117630163327798,0.7660025464200264,-0.22651626650286005,-0.3388135682596487,0.49712759570109555,-0.1376,0.09360000000000007,10.315113299999998,-0.5513240579867504,0.28702484964438,-0.39628973302444165,nan,nan,nan
19.275778919000004,1526842.5222825052,-4462983.765113965,4278790.822907546,0.4990512574032291,-0.13327542155619174,0.01599178142626914,0.7731165416476294,-0.23221753069841866,-0.3361993036697257,0.48511427544020685,0.8623999999999999,0.24360000000000007,9.145113299999998,-0.00045451282604019,0.030679615757712823,0.40983421524043934,nan,nan,nan
19.350277419000122,1526842.5593390362,-4462983.775010192,4278790.824094999,0.4848777628119313,-0.09046838643552021,0.08275706054916723,0.7681101236056417,-0.2194493257950887,-0.33955336348759413,0.4965403763276617,-1.2176,-0.4463999999999999,9.935113299999998,-0.17498743802547315,-0.12312752457428747,-0.4399229643242999,nan,nan,nan
19.426389793999988,1526842.596455803,-4462983.78193543,4278790.830429945,0.44213647346028906,-0.05527591516894578,0.03548350665182168,0.7645625921698761,-0.20188186542797132,-0.32677717468326273,0.5175948548126941,-0.017600000000000005,-0.9964,8.885113299999997,0.020271272041392476,-0.5736406377453238,-0.5511877041389385,nan,nan,nan
19.500463003000277,1526842.6292470202,-4462983.786034989,4278790.833061593,0.402633034818081,-0.029653453751867592,-0.054951598269346785,0.7595894413364087,-0.18166330761051974,-0.3264400780003016,0.5324088647929826,0.9224,-0.9763999999999999,8.535113299999997,-0.25461808514771445,-0.3260220501186283,-0.5511877041389385,nan,nan,nan
19.576926877999995,1526842.6600324258,-4462983.788302299,4278790.828859982,0.4428799003756883,-0.07287981307186989,-0.18037014865510517,0.7581582040659601,-0.1688960642186507,-0.32355950364925845,0.5403512794968843,2.3224,-0.4164,9.075113299999998,-0.13899002220309012,-0.2605722031688409,-0.27302585460234213,nan,nan,nan
19.65127866900002,1526842.692945027,-4462983.7937183585,4278790.815455782,0.50891215691976,-0.17071636251135117,-0.09497570142185172,0.7590025877192671,-0.17299448904562634,-0.3262386649781577,0.5362427739609323,1.2424,-0.6564,11.635113299999997,0.00499964108644209,0.12558189383490448,0.11967322709638202,nan,nan,nan
19.737731086000167,1526842.731827146,-4462983.806761501,4278790.808199409,0.5260098229150315,-0.12913721545801662,0.016375153645731527,0.7554906953415335,-0.15908999343152788,-0.3278666844639157,0.5444516700476811,-0.5276000000000001,-0.6264,10.525113299999997,-0.21316651541284912,-0.17003324822163507,-0.33847570155212947,nan,nan,nan
19.81789437799989,1526842.7793702371,-4462983.818433493,4278790.809679468,0.635669252691014,-0.035607094719717375,0.24042820378218846,0.7558437520717369,-0.17438133063532404,-0.3246143263328119,0.5412179909022002,-1.2176,0.16360000000000008,11.295113299999997,0.27007152123308087,0.13867186322486197,0.18075975091618357,nan,nan,nan
19.892389586000263,1526842.8266577523,-4462983.82108231,4278790.827564952,0.6682273871871123,-0.01204797535273991,0.2641232992393089,0.7595111575444317,-0.17496673046017375,-0.33596222010257565,0.5288277905122706,0.4624,-0.3263999999999999,9.905113299999998,-0.2786163623626365,0.26520823399445087,0.2571179056909355,nan,nan,nan
19.97107704400014,1526842.8792157294,-4462983.8220299175,4278790.848338998,0.6524656014437409,0.021166689412936895,0.23677898122038288,0.7579518035428378,-0.15350603059081114,-0.3469158821689186,0.5306546271673509,0.5124,-1.0264,9.155113299999998,-0.5393249193792894,-0.07185847779695403,-0.2882974855572925,nan,nan,nan
20.0483280440003,1526841.2773959425,-4462984.682642337,4278790.338619223,-1.1305085879306218,-0.9225788585700149,-0.26452106294071676,0.7485093836572352,-0.2146058678439418,-0.3194033520638408,0.5400551113647045,0.13239999999999996,-0.3363999999999999,8.575113299999998,0.25043656714814466,-0.0925842626643867,-0.18466856122012917,42.403136,-71.113561,21.7
20.12195896100002,1526841.1905644506,-4462984.753503275,4278790.318302033,-1.2400448978726442,-0.892950946041549,-0.2678874657330724,0.7446375853031842,-0.20799434274900508,-0.31095340481489875,0.5527759044396029,-0.12760000000000005,-1.3863999999999999,9.155113299999998,0.11735521168357706,-0.29656961899122397,-0.3101141012072216,nan,nan,nan
20.19567716900019,1526841.0986882332,-4462984.819662941,4278790.298453972,-1.4223540113693167,-0.925283838588553,-0.2092368923475873,0.7404099401568754,-0.2073128505064724,-0.31678178762642295,0.5553951765335452,-0.09760000000000002,-2.5664,10.065113299999998,-0.05499605195086299,0.1277635553998974,-0.15412529931022842,nan,nan,nan
20.27230829400014,1526840.9897018974,-4462984.890561813,4278790.282421421,-1.4691200894366707,-0.934567767553619,-0.018869288367242942,0.7292751922607261,-0.2085289500791848,-0.32887608019362874,0.5625956766321393,-1.2276,-0.8264,11.495113299999998,-0.03208860551843742,0.3044781421643233,-0.3559289940720728,nan,nan,nan
20.346634002999963,1526840.880907311,-4462984.959770528,4278790.28102407,-1.4821628538179694,-0.9696497089290764,-0.03476665279306074,0.7302062523560561,-0.1946886973388299,-0.32791671047293014,0.5668913226518754,0.7624,-0.3964,9.925113299999998,-0.22516565402031014,-0.26166303395133733,-0.18794105356761856,nan,nan,nan
20.422854544000074,1526840.7674582428,-4462985.033990345,4278790.27836293,-1.515567772824184,-1.007787462454255,-0.07648907182283055,0.7359988239269224,-0.1999437946375933,-0.34309343194006175,0.5482837838933811,1.1724,-0.7764,9.615113299999997,-0.31352294740252307,0.4124703896314724,0.40874338445794284,nan,nan,nan
20.49747754400005,1526840.6547835462,-4462985.108914178,4278790.272676359,-1.5824935432809601,-0.9880484484804655,-0.0687250435482209,0.7206639420216726,-0.20509345107721927,-0.3500487713447599,0.5621797019030391,-0.21760000000000002,-1.2864,9.425113299999998,0.2100758281957758,0.28047986494940125,-0.4911920111016333,nan,nan,nan
20.5748658360003,1526840.532465961,-4462985.185284601,4278790.267364311,-1.714062631431734,-0.9641493896714636,-0.10479733542636344,0.7135628401317863,-0.2006081225724698,-0.33234379609188497,0.5832084156602936,-0.0776,-1.8463999999999998,8.805113299999997,0.40206204591515204,-0.442740943845749,-0.4421046258892928,nan,nan,nan
20.648185836000266,1526840.406738538,-4462985.256005481,4278790.25967737,-1.7985492282508315,-0.9035171570421393,-0.1656061608787034,0.708041480122768,-0.19351902050193498,-0.3248237697145807,0.5964202966991374,0.23239999999999997,-0.8764000000000001,8.385113299999997,0.13153601185603098,-0.28129798803627354,-0.3679281326795338,nan,nan,nan
20.735425920000125,1526840.2678440001,-4462985.325780384,4278790.246888289,-1.8570318306276177,-0.9352836104015145,-0.2513145674405198,0.70146543099743,-0.19460672604994894,-0.3179601221997988,0.6074338091834741,1.5424,-0.6364,9.095113299999998,0.2515273979306411,-0.10894672440183353,-0.25993588521238464,nan,nan,nan
20.809228128000086,1526840.1122898068,-4462985.404124376,4278790.225836935,-1.862345251738241,-1.0593335163058977,-0.08066839623647087,0.6961561800191415,-0.20766981575209043,-0.3063819138857588,0.6151178294010792,0.3024,-0.3064,12.215113299999997,0.4696935544299323,0.00013635384781205705,-0.052678036538058026,nan,nan,nan
20.883277378000002,1526839.9739070006,-4462985.48283886,4278790.219842817,-1.8500155579391149,-1.044744150427952,0.02929155687396151,0.6925562072412474,-0.1862604744341621,-0.3226865197327483,0.6176943791347722,-0.5276000000000001,0.7136,10.735113299999998,-0.6298638743264953,-0.03367940040957808,-0.375563948157009,nan,nan,nan
20.95785921100014,1526839.836294981,-4462985.56055137,4278790.222021647,-1.8811011121858288,-1.0129107969219762,0.05555772272792675,0.6859830089441368,-0.18880596475303207,-0.3240779744868792,0.6235006705071399,0.06239999999999998,-0.17639999999999992,9.665113299999998,0.10753773464110895,0.09612946270750018,-0.20212185374007247,nan,nan,nan
21.03449175300011,1526839.6922947308,-4462985.6380907465,4278790.226274649,-1.9767943745259149,-1.0340653595065687,-0.003085749359646728,0.6823624423432414,-0.18908558136323939,-0.3338267473766732,0.6222441992437929,1.2624,-0.8564,9.155113299999998,-0.1466258376805653,0.21612084878211033,-0.08213046766546234,nan,nan,nan
21.112251711000226,1526839.9719272547,-4462986.383029717,4278789.228805468,-1.5278654471386273,-1.830793843662618,-1.085510836620572,0.657145858327656,-0.1952422718995336,-0.36827216118394834,0.6280249931332086,0.26239999999999997,-0.5464,8.775113299999997,0.15117096594096718,-0.09367509344688316,-0.22175680782500867,42.403121,-71.113581,21.8
21.186804545000086,1526839.8523981392,-4462986.526257754,4278789.14388297,-1.635362689525936,-1.826329084094882,-1.1736811089414618,0.647616034644295,-0.19877253882262114,-0.3589339298837391,0.6420664950116692,0.5724,-1.1064,8.695113299999997,0.38897207652519455,-0.08058512405692568,-0.30902327042472516,nan,nan,nan
21.261037836000014,1526839.730565254,-4462986.662317445,4278789.056444901,-1.6920536659501808,-1.887600584000182,-1.2055227323362718,0.6452535522138552,-0.1998550420989824,-0.3540595266946821,0.6467980114506376,0.7023999999999999,-0.4563999999999999,9.945113299999997,0.1609884429834353,-0.06858598544946466,-0.08649379079544815,nan,nan,nan
21.337583670000186,1526839.601849955,-4462986.805908088,4278788.9647402335,-1.7020368549056886,-1.9774822053971084,-1.105422734401507,0.6488255785604676,-0.1949694032899939,-0.3519557951974212,0.6458633130702772,-0.2976,-0.09639999999999996,11.495113299999998,-0.0746310060357992,-0.1471258017892095,0.04222424153913364,nan,nan,nan
21.412193170000137,1526839.474640643,-4462986.953704036,4278788.882121538,-1.7339265854262371,-2.0235710046812634,-0.9188339400673292,0.6487079250915657,-0.18680149477948388,-0.36174147747099994,0.6429823741794093,-1.3776,-0.6364,11.835113299999998,-0.3375212246174451,0.04486041593016675,-0.07994880610046942,nan,nan,nan
21.488222836000205,1526839.3428668468,-4462987.107490036,4278788.812292608,-1.7651990619158848,-2.000964216845139,-0.9942269666144263,0.6454473512443719,-0.18061033564805154,-0.379462664619474,0.6377975463619763,0.4224,-0.05639999999999992,8.835113299999998,-0.4389684873896155,0.2542999261694863,-0.1126737295753631,nan,nan,nan
21.56298708600025,1526839.2108704082,-4462987.257116305,4278788.737947215,-1.757018730291641,-2.0072233951995107,-1.121396724742382,0.6371101054193709,-0.19818709049150188,-0.38393771895722495,0.6382823977313651,0.9723999999999999,0.2836000000000001,8.785113299999997,0.2722531827980738,0.45937611327882005,0.006226825716750603,nan,nan,nan
21.84948204500006,1526838.7245148132,-4462987.812730375,4278788.427536426,-1.5654059887083016,-1.9389013045220358,-1.1649122183113372,0.623732149422432,-0.21864506973063333,-0.39015417259154933,0.6410399842642495,-0.7576,0.6936000000000001,9.665113299999998,0.09226610368615858,0.15612515574480526,-0.026498097758143078,nan,nan,nan
21.930739335999988,1526838.5817229794,-4462987.989591378,4278788.321276483,-1.581204680887743,-2.1602136490468897,-1.1556631090395948,0.6243249454168278,-0.21863638415875,-0.38636227674493984,0.642760208567297,0.4124,-0.18639999999999993,11.645113299999998,0.06499533412374717,-0.06531349310197529,0.0029543333692612353,nan,nan,nan
22.00452221100022,1526838.4649301276,-4462988.14915169,4278788.235915497,-1.659020138582937,-2.2643804155778335,-1.1273289794920853,0.6165757192572944,-0.2181349774821412,-0.3902621153235019,0.6480331750158997,-0.26760000000000006,-0.9563999999999999,10.855113299999998,0.0246345951713783,0.10703777053246474,-0.2523000697349094,nan,nan,nan
22.081109669999933,1526838.337828517,-4462988.32263144,4278788.149548053,-1.6351970025560754,-2.3194863648978803,-1.090904419193017,0.6062279351218867,-0.22334209152253284,-0.38876044369029616,0.6568647644764214,-1.0376,0.40360000000000007,10.645113299999998,0.2580723826256199,0.11903690913992576,-0.2555725620823988,nan,nan,nan
22.158877377999943,1526839.3264197244,-4462987.8103387775,4278788.173177711,-0.3305815830237122,-1.7176859028107234,-0.9319352975880149,0.6084234724143003,-0.18940487455356733,-0.41034307135241604,0.6523536127442577,0.12239999999999998,0.25360000000000005,9.885113299999997,-0.07572183681829564,0.3415663887692028,-0.275207516167335,42.403108,-71.113593,21.9
22.234940836000078,1526839.3001228962,-4462987.9469758235,4278788.0990448985,-0.3606658218462545,-1.723280381942974,-1.0799597685036617,0.5991903997327165,-0.1718425219837623,-0.4077005812780498,0.6672490158019675,0.5024,-0.11639999999999992,8.605113299999998,-0.027725282388451587,-0.30420543446869913,-0.5479152117914491,nan,nan,nan
22.30599346100007,1526839.274448103,-4462988.069651344,4278788.022165577,-0.3643708225165819,-1.696215952832035,-1.196246490738689,0.5939274927731182,-0.16833810954862194,-0.3997792841210026,0.6775610221568821,0.18239999999999998,0.14360000000000006,8.475113299999997,0.23298327462820137,-0.18857737152407483,-0.2741166853848386,nan,nan,nan
22.38245525299999,1526839.2466138767,-4462988.199224997,4278787.930784508,-0.34932487633098896,-1.6986545998273725,-1.2855537028052375,0.5962510538404708,-0.16030025563450676,-0.3945918980185185,0.6805040362940761,0.18239999999999998,0.3536000000000001,9.125113299999997,-0.012453651433501205,-0.2605722031688409,-0.06576800592801549,nan,nan,nan
22.456645003000176,1526839.220680551,-4462988.325330426,4278787.835347036,-0.3418814002886166,-1.7770720481043303,-1.2845521170401744,0.6018790840638908,-0.14909863215077168,-0.39604241638666415,0.6772455766090607,0.2724,-0.17639999999999992,10.595113299999998,-0.265526392972679,-0.22784727969394725,0.030225102931672635,nan,nan,nan
22.5339402110003,1526839.194238375,-4462988.462774731,4278787.735995761,-0.21896981967366574,-1.8204298621574218,-1.1753694723172972,0.6034450663706649,-0.1538366778290094,-0.39971681693185046,0.6726178671772355,-1.1876,0.5236000000000001,11.535113299999997,-0.04408774412589843,0.14194435557235133,0.13385402726883597,nan,nan,nan
22.607437835999917,1526839.17817224,-4462988.596342324,4278787.64975719,-0.19035978281184054,-1.8581691772964462,-1.2020783828831796,0.6043801164014456,-0.1628278914698217,-0.40775827604564246,0.6647893963738433,0.15239999999999998,0.0036000000000000754,10.035113299999997,-0.08881180620825312,0.31974977311927366,0.21021218204358788,nan,nan,nan
22.684863503000088,1526839.163484666,-4462988.739712929,4278787.557008527,-0.213554990853295,-1.9126200083963356,-1.3496046960826464,0.6164784365200993,-0.16298875005159785,-0.4164617790158316,0.6480344063690343,1.2924,-0.18639999999999993,9.035113299999997,-0.3757003020048211,0.08194866253504626,0.43601415402035426,nan,nan,nan
22.768448335999892,1526839.1477354215,-4462988.88076475,4278787.4574779365,-0.1149187968757874,-1.9680286960286777,-1.3943732065393506,0.6077659166653299,-0.18171717009994537,-0.4203818353467242,0.6487515500544755,0.0023999999999999577,0.5936,10.345113299999998,0.2907973061005135,0.4899193751887208,0.029134272149176178,nan,nan,nan
22.84321333600019,1526839.137983039,-4462989.047778061,4278787.339146894,-0.19170725588605944,-1.948607142796682,-1.516056962726112,0.6182750973006463,-0.162000815896212,-0.4163266436802525,0.6466558327468483,0.06239999999999998,-0.9363999999999999,8.475113299999997,-0.28625217784011164,-0.45474008245321007,0.01277181041172934,nan,nan,nan
22.917646628000057,1526839.123772467,-4462989.192221327,4278787.226767024,-0.3659968954340514,-1.900091292875973,-1.6420907435789394,0.6116228970005054,-0.15038029822075635,-0.4188399895764943,0.6541225125770044,0.5624,-2.3564,7.5251132999999975,-0.12480922203063617,-0.11876420144430164,-0.3821089328519877,nan,nan,nan
22.993957877999947,1526839.095850366,-4462989.337180319,4278787.101491033,-0.3915150451713423,-1.995498819040976,-1.7974838052819717,0.6052659362409315,-0.16177371914605088,-0.4143985758594194,0.6601183462853263,1.8024,-0.6063999999999999,9.325113299999998,0.34970216835532214,0.17030595591725917,-0.06249551358052613,nan,nan,nan
23.06788817000006,1526839.066773718,-4462989.48538003,4278786.967997303,-0.31317552471462506,-2.189400679431028,-1.7393328543241438,0.6068851476632386,-0.1586109827701015,-0.42002803240713105,0.6558272838479741,0.2724,-0.14639999999999995,12.475113299999997,-0.20662153071787037,0.036133769670195104,0.03895174919164428,nan,nan,nan
23.144250878000094,1526839.0428574036,-4462989.652578265,4278786.835169454,-0.27406476487176873,-2.2976049804868066,-1.7391036779867828,0.6060581280596689,-0.15120590578193924,-0.42290611998073785,0.6564912289658231,0.12239999999999998,-0.4563999999999999,10.955113299999997,-0.1564433147230334,-0.07513097014444339,-0.11812788348784538,nan,nan,nan
23.22304496100014,1526838.7160401621,-4462988.797105428,4278787.67173663,-0.5381620097917392,-1.304388229959122,-0.44858651225650314,0.6176085421215919,-0.14549925474983158,-0.4018669352173596,0.660221646495658,-1.6976,-1.3264,10.735113299999998,-0.14008085298558656,0.45174029780134484,-0.27629834694983146,42.403101,-71.113605,22.1
23.296890753000298,1526838.674201811,-4462988.898512536,4278787.63686215,-0.4979715041080792,-1.3048414441788763,-0.5516059478843302,0.6118986574594218,-0.14328298394431904,-0.41268337200679484,0.659350024294544,0.5924,0.22360000000000008,9.095113299999998,-0.20662153071787037,0.19648589469717412,-0.14648948383275323,nan,nan,nan
23.37186558600024,1526838.6369160283,-4462988.996212975,4278787.595560471,-0.40472321366950426,-1.23598500766554,-0.5581613372555319,0.6101120179904913,-0.14853170609895575,-0.4138522841062549,0.6591114816809711,-1.1976,0.38360000000000005,9.435113299999998,0.069358657253733,0.13212687852988322,0.025861779801686812,nan,nan,nan
23.547860587000287,1526838.5655447927,-4462989.21417373,4278787.497131067,-0.5928769733673225,-1.1386775406148462,-0.8662733476107819,0.595668916519158,-0.1561264300882243,-0.4038940536623035,0.6765150949489428,0.6124,-1.1363999999999999,7.955113299999997,0.23298327462820137,0.026316292627727,-0.17594191496015754,nan,nan,nan
23.623065461999886,1526838.5210038482,-4462989.29971892,4278787.432050731,-0.6598552921378158,-1.2260820482617296,-0.9165348563700317,0.5992325483723733,-0.14254323631928092,-0.39901046208169305,0.6792587360180772,0.9823999999999999,-1.0764,9.975113299999997,-0.11281008342317515,-0.3718369429834794,-0.10503791409788792,nan,nan,nan
23.714966587000163,1526838.4720723885,-4462989.390638831,4278787.364085241,-0.5807973347096286,-1.342590305863478,-0.7332311712865608,0.5922459639957175,-0.14401036864254937,-0.40824066342049276,0.6795920049124781,-1.0276,-0.5164,12.795113299999997,-0.11499174498816807,0.24993660303950047,-0.15303446852773195,nan,nan,nan
23.78954333699994,1526838.4185568998,-4462989.514347003,4278787.296524283,-0.48395904110038723,-1.436841351314927,-0.7636446384779874,0.5964885470370915,-0.14923792041066614,-0.4143726747217279,0.6709878861542775,0.2724,0.4436000000000001,10.615113299999997,-0.11281008342317515,0.14521684791984069,0.20039470500111978,nan,nan,nan
23.863693627999965,1526838.3825542189,-4462989.621236505,4278787.239715231,-0.5187277556809582,-1.4418821224427718,-0.907203287959285,0.6063092137601669,-0.14731806443647827,-0.41161752331214174,0.664272188383152,0.9723999999999999,-0.4164,8.495113299999998,-0.09535679090323185,-0.16130660196166344,0.2745711982108788,nan,nan,nan
23.942378378000285,1526838.3424379753,-4462989.732745661,4278787.169555908,-0.5053233053760002,-1.4012063578472793,-0.9836059400422341,0.5890642887354541,-0.15127550675006926,-0.4117424485036189,0.6786657067003559,-0.1376,-0.20639999999999994,8.825113299999998,0.27879816749305253,0.19866755626216703,-0.48028370327666875,nan,nan,nan
24.01458842000011,1526838.305291933,-4462989.835747581,4278787.097251569,-0.4407662948587643,-1.3171240876305967,-1.086236345239866,0.5887619470821069,-0.14865659270280088,-0.3979514456964027,0.6876737849729103,-0.5876,0.8036000000000001,8.315113299999997,0.31479558331543556,-0.3031146036862027,-0.12249120661783121,nan,nan,nan
24.091444711999884,1526838.2713786946,-4462989.93708914,4278787.013674869,-0.5413329213556072,-1.2880841600396047,-1.222160557353772,0.5912836625288361,-0.13660408959106926,-0.3991179968602347,0.6873338186590996,0.9424,-0.9063999999999999,8.045113299999997,-0.2186206693253314,-0.22239312578146497,-0.07885797531797296,nan,nan,nan
24.169400544999917,1526838.2292126948,-4462990.037421771,4278786.9184772195,-0.5794904458923545,-1.369918561754897,-1.2814910710441683,0.5931874113499109,-0.14096452662269732,-0.4035067923640624,0.682231607537236,1.2124,-0.6963999999999999,9.905113299999998,-0.07026768290581337,0.14194435557235133,0.14039901196381468,nan,nan,nan
24.24782766999988,1526838.0666215557,-4462989.687551492,4278787.114645146,-0.6531008118029102,-1.0657552366931415,-0.8203206566046318,0.5985271104718165,-0.12849892668688528,-0.3888779706463057,0.6884963677270438,0.15239999999999998,-0.5164,11.065113299999998,-0.06590435977582754,-0.14385330944172015,0.03131593371416909,42.403093,-71.113616,22.2
24.32185637800012,1526838.0158767106,-4462989.770358899,4278787.050907598,-0.691126403003804,-1.122768807493754,-0.7443750803971042,0.5935414847506465,-0.13495419673996095,-0.3922774745349852,0.6896479204575832,0.15239999999999998,-1.3264,10.805113299999997,0.06717699568874008,0.21284835643462097,-0.052678036538058026,nan,nan,nan
24.400508378000268,1526837.9615100296,-4462989.858680244,4278786.99235217,-0.5561336031768056,-1.1662568715439061,-0.5460329634317126,0.58978571207256,-0.15619269765849597,-0.3898077546325879,0.6897873368062581,-1.7276,0.18360000000000007,12.315113299999998,0.37806376870023,0.37210965067910357,0.1523981505712757,nan,nan,nan
24.475051294999957,1526837.9200677183,-4462989.945588102,4278786.951662544,-0.45764647814056775,-1.137066367060584,-0.5797073220885749,0.5888041919679381,-0.15121413071096668,-0.3955393171961995,0.6884711753610455,-0.6276,1.2536,9.545113299999997,-0.19462239211040935,0.014317154020265985,-0.07340382140549069,nan,nan,nan
24.551287837000018,1526837.8851841304,-4462990.032259706,4278786.907475006,-0.6242495018632359,-1.1094420473527422,-0.6776428606423166,0.5868189720409481,-0.12794317900444327,-0.3989794314774341,0.692884875584487,0.8523999999999999,-1.8463999999999998,8.145113299999998,-0.36806448652734586,-0.3642011275060042,-0.3592014864195621,nan,nan,nan
24.62559933700004,1526837.8387394475,-4462990.114803119,4278786.857057813,-0.6845606017413857,-1.0107873889077044,-0.7870544111174551,0.581984249432456,-0.12205850421842707,-0.3845694811603562,0.7060470024561396,0.18239999999999998,-0.7063999999999999,7.665113299999998,0.3333397066178753,-0.33038537324861406,-0.31120493198971805,nan,nan,nan
24.721019295000133,1526837.7863533907,-4462990.192153707,4278786.796828409,-0.6957978711184625,-1.0070152910367414,-0.8196533464927642,0.5791750145262515,-0.12299142761219964,-0.3715197900675818,0.7151240853357644,0.4724,-0.2864,9.435113299999998,0.35515632226780447,-0.1820323868290961,-0.13885366835527804,nan,nan,nan
24.794568045000233,1526837.7220707412,-4462990.285188788,4278786.721103129,-0.6479869642403597,-1.0952804525821684,-0.676915555746239,0.5849334979601135,-0.12409202316084,-0.3716798037861077,0.71014653189765,-0.04760000000000003,-0.12639999999999993,11.645113299999998,-0.04408774412589843,-0.014044446324641871,0.1600339660487509,nan,nan,nan
24.868491045000155,1526837.6741356626,-4462990.36621257,4278786.671028047,-0.5304144830369819,-1.1555188697975693,-0.5670680158967231,0.5910489909065103,-0.12823374146015162,-0.3682460333572396,0.7061246755162502,-0.4076000000000001,0.8336,11.785113299999997,0.07044948803622945,-0.02277109258461352,0.23421045925850992,nan,nan,nan
24.944979712000077,1526837.6335281688,-4462990.454676831,4278786.62761443,-0.5187733345977222,-1.1788069507777534,-0.5411912033852955,0.599656176843662,-0.12267864757641896,-0.3822652113262814,0.6922685373238344,0.3424,-0.02639999999999995,10.275113299999997,-0.5065999959043958,0.07758533940506043,0.2723895366458859,nan,nan,nan
25.02014579500019,1526837.5949961497,-4462990.542233012,4278786.5874173185,-0.6070139373705696,-1.246805406150512,-0.6366208742967481,0.6199396875487386,-0.12145336018871435,-0.3986404372867138,0.6648380760887906,2.0824,-1.0564,9.195113299999997,-0.67458793640885,0.12340023226991159,0.7545367425093193,nan,nan,nan
25.096004295000057,1526837.54861644,-4462990.637496842,4278786.5387754515,-0.5202112901546061,-1.2157266847887047,-0.633466363695825,0.6130113784045828,-0.14054351069361476,-0.39545146396490727,0.6693898055342518,-0.37760000000000005,0.12360000000000007,9.885113299999997,0.43478696939004574,0.3382938964217134,0.014953471976722251,nan,nan,nan
25.170275462000063,1526837.5098657277,-4462990.728056728,4278786.491588331,-0.5976970320964611,-1.1056732270660794,-0.776488939882561,0.6142609416547622,-0.13236435057606796,-0.3914716426908529,0.6722448421368885,0.38239999999999996,-0.8064,7.195113299999997,-0.0375427594309197,-0.2365739259539189,-0.09631126783791626,nan,nan,nan
25.25029596200011,1526837.1849433656,-4462990.611752856,4278786.632349694,-1.0330651813133893,-0.8970879439116607,-0.5821083861154058,0.6092033720043486,-0.13239312540181122,-0.37197090350329565,0.68773611173804,0.9623999999999999,-1.8063999999999998,8.345113299999998,0.24389158245316594,-0.13185417083425913,-0.05922302123303676,42.403086,-71.11363,22.4
25.425907628000004,1526837.0002277389,-4462990.772155282,4278786.528266702,-1.077186871844639,-0.9662826653040891,-0.4971890861810472,0.581387300099292,-0.1852071950852046,-0.3531606679362497,0.7092000037729084,0.38239999999999996,-0.6564,10.315113299999998,0.6354998333693936,0.36229217363663546,-0.1126737295753631,nan,nan,nan
25.50034062800023,1526836.919999982,-4462990.844123009,4278786.491236576,-1.0908749212652489,-1.041636572880713,-0.34908245333001536,0.5695236905840055,-0.19182214133989245,-0.35643047939836753,0.7154050222551884,-0.8876,0.19360000000000005,11.815113299999998,0.15880678141844237,0.25866324929947215,-0.27629834694983146,nan,nan,nan
25.572070627999892,1526836.8414217164,-4462990.919154521,4278786.4660913525,-1.1400678248728329,-1.0787621548795756,-0.38481053457691017,0.5562497807915484,-0.18472517916428147,-0.3685650056588022,0.7215418398904878,0.37239999999999995,0.5136000000000001,9.695113299999997,-0.22189316167282075,0.14958017104982652,-0.4955553342316191,nan,nan,nan
25.648774212000262,1526836.754025305,-4462991.0018513035,4278786.4365921775,-1.1971620610430276,-1.0977841121964336,-0.4442586570495584,0.5447074017853147,-0.17971475645534443,-0.3766015884633108,0.7274391362005098,0.2824,0.37360000000000004,9.315113299999998,-0.1117192526406787,0.10485610896747184,-0.3897447483294629,nan,nan,nan
25.733414212000298,1526836.6652386785,-4462991.083267638,4278786.403644067,-1.3487709689775151,-1.0128124788464534,-0.5080131364757483,0.536996764438376,-0.16588590258361366,-0.37773758655183726,0.7358197187963051,-0.21760000000000002,-1.0464,8.035113299999997,-0.10299260638070705,-0.2169389718689827,-0.4202880102393637,nan,nan,nan
25.809422795000046,1526836.5488398557,-4462991.170673272,4278786.359802576,-1.4677143012599838,-0.980324912033373,-0.6301193856270613,0.528750386378517,-0.1573228553106228,-0.37389837954198846,0.7455686088041139,0.5724,-0.18639999999999993,8.335113299999998,0.07590364194871173,-0.15912494039667052,-0.32211323981468265,nan,nan,nan
25.88402387799988,1526836.4394282375,-4462991.243752164,4278786.312829959,-1.5175268314000836,-1.0364161584050104,-0.6293382762716708,0.5333915378097104,-0.14507758477054086,-0.374447007441227,0.7444698791524029,0.2724,0.15360000000000007,10.215113299999997,-0.21534817697784203,-0.27911632647128065,-0.01668062071567497,nan,nan,nan
25.958864877999986,1526836.3261462497,-4462991.321119681,4278786.265850433,-1.494286326871514,-1.1167485794645766,-0.5044359466252554,0.5336331699891005,-0.14985908109239432,-0.37430930863315215,0.743418077348704,-0.6976,0.25360000000000005,11.745113299999998,0.05954118021126489,0.09503863192500372,0.06840418031904859,nan,nan,nan
26.032550878000166,1526836.2153530759,-4462991.403920492,4278786.228449262,-1.485600627768038,-1.1304539995914016,-0.4035168266057343,0.5289638658489679,-0.16996269504289876,-0.3716970422641146,0.7437413665036545,-1.1176,0.12360000000000007,10.855113299999998,0.3638829685277761,0.411379558848976,0.11530990396639619,nan,nan,nan
26.10891717000004,1526836.1018471208,-4462991.490291795,4278786.197618928,-1.5250245257328552,-1.1504430903368612,-0.398290370043494,0.5239286131713701,-0.1807862365483585,-0.38652474172421075,0.737166039347163,-0.3176,0.34360000000000007,9.915113299999998,-0.18044159193795542,0.49428269831870664,0.03240676449666554,nan,nan,nan
26.183688212000106,1526835.9884863289,-4462991.575808544,4278786.168012511,-1.554927154772862,-1.1594752047813683,-0.5012421292970899,0.5233425724416442,-0.1909165548362811,-0.3839568652503433,0.7363698439938197,0.15239999999999998,0.8436,8.885113299999997,0.18825921254584668,0.174669279047245,0.1174915655313891,nan,nan,nan
26.263499087000127,1526836.0506734008,-4462991.466563539,4278786.3020333275,-1.4008922187979973,-0.8752195017325539,-0.3948169925147267,0.5298692614375389,-0.1821174810904214,-0.38022448384028046,0.7358676044711131,-0.5076,0.4736000000000001,8.385113299999997,-0.025543620823458676,-0.018407769454627698,0.107674088488921,42.403081,-71.113646,22.6
26.336191504,1526835.9433722363,-4462991.533600867,4278786.271792369,-1.5191294953553212,-0.7797763027370115,-0.5423092893787755,0.5321396451665265,-0.18135007475310577,-0.37989038955096927,0.7345902537555506,0.15239999999999998,-0.14639999999999995,7.345113299999998,-0.027725282388451587,-0.03586106197457099,0.05531421092909112,nan,nan,nan
26.410821837000185,1526835.8301363238,-4462991.591725392,4278786.231368635,-1.6774780299066632,-0.7934660665015039,-0.6354004450545616,0.5310845479750633,-0.1843584170646471,-0.38488535877909646,0.7320002992579797,0.8523999999999999,-0.7363999999999999,8.775113299999997,-0.0768126676007921,0.15394349417981235,0.022589287454197443,nan,nan,nan
26.484796711999934,1526835.7058147232,-4462991.650530915,4278786.184277705,-1.8237429446477658,-0.9405580907103118,-0.6234290362493087,0.5377922923574031,-0.18575291092200796,-0.38885031056857244,0.7246176528987134,0.8824,-0.9163999999999999,11.065113299999998,-0.16844245333049443,0.05140540062514549,0.23311962847601345,nan,nan,nan
26.561233712000103,1526835.5664393469,-4462991.722410912,4278786.136633569,-1.8777515399799651,-1.0976235972742865,-0.4522418617276561,0.5442266829258101,-0.1963576086382186,-0.37376258259565365,0.7249569225337619,-1.0076,-0.6464,12.605113299999998,0.4075161998276343,-0.07840346249193277,0.2985694754258008,nan,nan,nan
26.635627878999912,1526835.426843542,-4462991.804010445,4278786.103013005,-1.8815481848480817,-1.1533176282024633,-0.31259464347345556,0.539610987939437,-0.1973383015102447,-0.38513419008003213,0.7221836557553901,-1.7476,0.33360000000000006,11.485113299999998,-0.2109848538478562,0.2466641106920111,-0.09958376018540563,nan,nan,nan
26.725195712000186,1526835.283080404,-4462991.892131792,4278786.079128639,-1.9586353270232266,-1.2120428197952455,-0.26552158457826425,0.5353185703980596,-0.20059639054832346,-0.37968687733254536,0.7273465419070668,-0.7376,-0.3164,10.555113299999997,0.22316579758573327,0.001227184630308513,-0.0930387754904269,nan,nan,nan
26.80450904500003,1526835.1019484198,-4462992.004219897,4278786.054573556,-1.9583570652618327,-1.2619798700889198,-0.3029823289923971,0.5322142276360785,-0.20923109478445365,-0.3735810288422258,0.7303475750099819,-0.5176000000000001,1.1136000000000001,9.855113299999998,0.23407410541069784,0.07758533940506043,0.013862641194225795,nan,nan,nan
26.87870762900002,1526834.9566774124,-4462992.097833616,4278786.032098315,-1.9835768643818434,-1.197350224790572,-0.4213052529115371,0.5394056416777883,-0.19621067290324912,-0.3768044134950063,0.7270222555688771,-0.5076,1.1736000000000002,7.955113299999997,-0.3244312552274876,-0.2638446955163303,0.040042579974140735,nan,nan,nan
26.95529437899995,1526834.8047652596,-4462992.189532634,4278785.999832669,-2.134718951830538,-1.127308022562584,-0.5546622447722165,0.543720651157691,-0.1786248729575843,-0.3753940052191584,0.7290681378772546,0.2824,-0.49639999999999995,7.665113299999998,-0.22298399245531722,-0.406743528023366,-0.1126737295753631,nan,nan,nan
27.029443712000102,1526834.646411987,-4462992.273156248,4278785.958687871,-2.292221898219635,-1.1084335509562695,-0.554062772065047,0.5447848256491726,-0.18061538701358057,-0.3776500461822484,0.7266140783742264,-0.15760000000000002,-1.2964,9.255113299999998,-0.045178574908394886,0.07322201627507462,0.06622251875405567,nan,nan,nan
27.106207920000088,1526834.4705334294,-4462992.3582045995,4278785.916175512,-2.3814674691016258,-1.1912014692894553,-0.4874876351309394,0.5449744917551631,-0.1843471059366939,-0.3791172720927214,0.724768268087591,-0.24760000000000004,-0.5763999999999999,10.945113299999997,0.006090471868938546,0.0983111242724931,0.05967753405907694,nan,nan,nan
27.18009804500025,1526834.2946143274,-4462992.446198702,4278785.88016478,-2.3656533857418798,-1.334082848548402,-0.28600710052684963,0.5448755445683725,-0.1941198648153879,-0.3774879731691499,0.7231396474297117,-1.5076,0.16360000000000008,12.985113299999998,0.15989761220093882,0.1768509406122379,0.13058153492134658,nan,nan,nan
27.257226212000205,1526834.113065906,-4462992.548580833,4278785.858215606,-2.353242262348644,-1.4732462301975326,-0.2660024799149713,0.5536321725367801,-0.20553797714957747,-0.3625023807877343,0.7209976296503579,-0.027600000000000013,1.0936000000000001,11.285113299999997,0.37915459948272645,-0.07294930857945049,0.38365427646052436,nan,nan,nan
27.33524217000013,1526834.8497058684,-4462992.418091361,4278785.888696136,-1.4050795641796074,-1.1762268382340815,-0.3749415080487892,0.5827481084442001,-0.17232002723554551,-0.38138791461855326,0.6966015428190668,0.7924,0.5436000000000001,7.885113299999998,-0.5513240579867504,-0.13403583239925204,0.3367485528131768,42.403075,-71.113663,22.7
27.40981112899999,1526834.7401328462,-4462992.509817647,4278785.859456885,-1.3698286532304942,-1.108929469209119,-0.37555396166452143,0.5702728697010049,-0.18026407358868862,-0.387209548752182,0.7016854592821982,-1.1776,0.6336,9.245113299999998,0.11953687324856997,0.3284764193792453,-0.24684591582242718,nan,nan,nan
27.48190733699994,1526834.6414726498,-4462992.589686906,4278785.83240808,-1.4020157477667363,-1.0456319967678127,-0.43043284400738857,0.5732211337494483,-0.1717959846518299,-0.38704507537419774,0.7014982406719437,-0.6576000000000001,0.10360000000000005,8.545113299999997,-0.14771666846306175,-0.19839484856654294,-0.029770590105632443,nan,nan,nan
27.558700587000203,1526834.533717868,-4462992.670051088,4278785.799326285,-1.5147170438445607,-0.9938078977348723,-0.5553648934717176,0.5744233250752785,-0.15562585242429489,-0.38819218849379616,0.7036513788914328,0.48239999999999994,-0.6364,7.945113299999997,-0.24589143888774279,-0.2998421113387133,-0.17812357652515046,nan,nan,nan
27.632183711999915,1526834.4220473093,-4462992.743318292,4278785.758382725,-1.5503235550361634,-1.0312399668628158,-0.6155129376839324,0.5726687219873547,-0.15627042290431956,-0.3814153814214781,0.7086271213794517,0.6624,-0.11639999999999992,9.525113299999997,0.19916752037081123,-0.09585675501187606,-0.07558548297048359,nan,nan,nan
27.725146254000265,1526834.3028566267,-4462992.822601223,4278785.711061372,-1.6402404101026753,-1.0975535193142791,-0.6413420331890456,0.5716925284480182,-0.1421740303229086,-0.3889074817451458,0.7083114916601639,0.8623999999999999,-0.7664,9.945113299999997,-0.3473387016599132,-0.1373083247467414,-0.18357773043763273,nan,nan,nan
27.80270108700006,1526834.1500599624,-4462992.924843867,4278785.651317128,-1.7034919179900476,-1.099575353585906,-0.5472917768424101,0.5648869899660548,-0.1595312526578379,-0.3872639821203507,0.7109705174629569,-0.6276,-1.1264,10.315113299999998,0.2809798290580454,0.2924790035568623,0.013862641194225795,nan,nan,nan
27.877779962000204,1526834.021302662,-4462993.007954537,4278785.609950444,-1.69369687465744,-1.0203191740797066,-0.31298714853295984,0.5545630036365378,-0.18822162420478708,-0.38793263244759413,0.711716775422891,-3.2775999999999996,-0.9463999999999999,11.065113299999998,0.46751189286493944,0.6524531617806928,0.08585747283899188,nan,nan,nan
27.957948837000004,1526833.8852819356,-4462993.089896328,4278785.584814459,-1.6207736592217579,-1.0164875564052132,-0.38352700455983657,0.5529205031041822,-0.18563414705973333,-0.38279419633022704,0.7164408450842704,-0.6476000000000001,1.6436,9.305113299999997,0.10862856542360541,-0.12312752457428747,-0.0952204370554198,nan,nan,nan
28.032581587000095,1526833.7645949423,-4462993.165586617,4278785.556256047,-1.6317747441280799,-1.0835392201707417,-0.4010750136079632,0.5551414747829433,-0.18238354506471705,-0.37676915333219446,0.7187483503421284,-0.05760000000000004,0.6036,10.255113299999998,0.08026696507869756,-0.18639570995908192,0.005135994934254147,nan,nan,nan
28.11118025399992,1526833.636677196,-4462993.250527198,4278785.524815058,-1.701825550101069,-1.0872776380232434,-0.4684258287525064,0.545914165023783,-0.16943043011751727,-0.3655452241865312,0.7346072034820662,0.18239999999999998,0.09360000000000007,9.095113299999998,0.217711643673251,-0.3816544200259475,-0.4661029031042148,nan,nan,nan
28.185816628999874,1526833.510231488,-4462993.331311972,4278785.490011,-1.7584382380893504,-1.063788574645705,-0.5261689553863699,0.5299354829257618,-0.16333411973411177,-0.3643037893777358,0.7481798572994925,0.10239999999999996,0.3036000000000001,8.895113299999998,0.14135348889849908,-0.04349687745204618,-0.5697318274413782,nan,nan,nan
28.26285467000025,1526833.3743963104,-4462993.413487113,4278785.449365698,-1.8407714999668991,-1.0627957500535665,-0.5647384429931837,0.529788017241297,-0.15711769262604738,-0.3620780985194181,0.7506917733535575,0.26239999999999997,0.07360000000000005,9.255113299999998,-0.017907805345983484,-0.16021577117916697,-0.08649379079544815,nan,nan,nan
28.33961092000027,1526834.2656297311,-4462993.299239775,4278785.432688311,-0.7002817940934869,-0.8406175973298207,-0.5027014005699021,0.5593878541044449,-0.11329695145714398,-0.3775539252994879,0.7291790339269464,-0.3276,0.06360000000000007,10.675113299999998,-0.4891467033844525,-0.3903810662859192,0.1654881199612332,42.403068,-71.113673,22.9
28.416114462000223,1526834.2093616808,-4462993.366783889,4278785.39229596,-0.6227874572236446,-0.8495591494837603,-0.37648050336133565,0.560440371829595,-0.10115569238387138,-0.3786008318133101,0.7296132716918318,-0.8775999999999999,0.13360000000000005,11.205113299999997,-0.18698657663293416,-0.2169389718689827,-0.10394708331539146,nan,nan,nan
28.491051420000076,1526834.1627467663,-4462993.4303724,4278785.3641168345,-0.5054730289565532,-0.85677978163575,-0.3044122707536478,0.5635890218665026,-0.12144768801051657,-0.3805257649703429,0.7230615577244712,-0.5576,0.7636000000000001,10.955113299999997,0.19153170489333604,0.41028872806647954,0.3596559992456023,nan,nan,nan
28.566423087000203,1526834.1247954092,-4462993.494700176,4278785.341261295,-0.4456625704039581,-0.8187798242832418,-0.36626356886242667,0.5922546458858323,-0.10285501074904428,-0.39640140803009166,0.6939172900706297,0.032399999999999984,0.9336,9.095113299999998,-0.9734755708128788,-0.3162045730761602,0.7501734193793336,nan,nan,nan
28.64167558700001,1526834.0911108206,-4462993.556586148,4278785.313577934,-0.4489891741765081,-0.8387712547157042,-0.4527478983688663,0.6006949691092106,-0.09598721371518112,-0.4000187605371476,0.685519511513093,1.2824,-0.37639999999999996,9.165113299999998,-0.2851613470576152,-0.13512666318174849,0.2047580281311056,nan,nan,nan
28.72719304500015,1526834.0573899567,-4462993.619581189,4278785.279574775,-0.412374365423149,-0.8601546804124797,-0.47453165052385504,0.5913958763724214,-0.10284661723977474,-0.39552571620520244,0.6951495516139942,0.7223999999999999,-0.48639999999999994,9.905113299999998,0.31806807566292494,0.1277635553998974,-0.239210100344952,nan,nan,nan
28.905074337000315,1526833.9797218223,-4462993.781585947,4278785.190199705,-0.4807522934345986,-0.6687057743188655,-0.7681488627886058,0.5902774603220439,-0.09941151645772418,-0.39007412086642984,0.6996656708874318,0.6823999999999999,-0.4463999999999999,7.925113299999998,0.03881539534383222,-0.05985933918949302,-0.04504222106058283,nan,nan,nan
28.97898446199997,1526833.9442152204,-4462993.830974104,4278785.133467046,-0.43555627357173954,-0.7277622725814631,-0.765563406778523,0.5913452160943097,-0.10042992796498812,-0.3875917524064757,0.6999980707077293,0.9024,-0.18639999999999993,10.515113299999998,0.06390450334125072,-0.03258856962708162,0.03240676449666554,nan,nan,nan
29.356108921000214,1526833.9386903893,-4462994.163832298,4278784.877826883,-0.04929737175940779,-1.1422890781837647,-0.7169856776859083,0.6060905125814666,-0.07733718943025208,-0.39554108134690164,0.685726259679059,1.0424,-0.20639999999999994,10.805113299999997,-0.11990048350940215,-0.08167595483942214,0.04680573082561877,42.40306,-71.113681,23.1
29.63264833700032,1526833.9248849314,-4462994.483724072,4278784.677038988,0.057347147930502496,-1.0698700290637426,-0.6874569017538947,0.6090499638795088,-0.04835982860261751,-0.3837797647802056,0.692410688231983,0.45239999999999997,-0.8963999999999999,9.745113299999998,-0.05063272882087717,-0.20493983326152168,-0.08976628314293753,nan,nan,nan
29.71952187900024,1526833.9293025518,-4462994.566139325,4278784.624082149,0.10111675305389328,-1.1177322630542514,-0.5923030897076756,0.608028650255272,-0.04807180729569064,-0.38223528336680496,0.6941804164036324,1.0924,-1.4163999999999999,11.075113299999998,0.04208788769132159,-0.021680261802117063,-0.047223882625575746,nan,nan,nan
29.793063212000106,1526833.9377749264,-4462994.659791922,4278784.574454233,0.18175066287124939,-1.2714546407593228,-0.5262707032458597,0.6175097580762027,-0.046041477029507505,-0.3819898531674316,0.686036175217808,2.2324,-0.8564,11.635113299999997,-0.11062842185818224,-0.11440087831431582,0.2571179056909355,nan,nan,nan
29.86955817099988,1526833.95166903,-4462994.75698949,4278784.534222965,0.30897037688182066,-1.2725068759916947,-0.4919109835942045,0.6173675436335996,-0.04244970548700117,-0.40130488183090296,0.6752849257515758,0.8623999999999999,-0.13639999999999994,10.595113299999998,-0.512054149816878,0.2619357416469615,0.11203741161890683,nan,nan,nan
29.94402258700029,1526833.9746527825,-4462994.851648997,4278784.497630589,0.31160587781568255,-1.2318940337800746,-0.521925169364758,0.61807249519218,-0.036240262027484337,-0.42382041570587115,0.6610970351489548,1.0524,-1.5064,8.975113299999997,-0.6658612901488783,0.2695715571244367,0.1556706429187651,nan,nan,nan
30.019987836999917,1526833.9984556416,-4462994.94575056,4278784.457761921,0.3199692369424004,-1.1594777563590206,-0.6359626715812522,0.6372496334875033,-0.04252268784270957,-0.423117308143871,0.6427102533369936,1.1423999999999999,-1.2864,8.005113299999998,-0.10844676029318932,-0.09803841657686897,0.6999952033844965,nan,nan,nan
30.094768796000153,1526834.0223371454,-4462995.032290356,4278784.410295655,0.4035749420897072,-1.093172966602402,-0.703627642018024,0.6380075700661852,-0.06245725693715201,-0.4294027985282863,0.6361278713961117,0.6424,-0.8464,8.885113299999997,0.15662511985344946,0.44955863623635195,0.34438436829065194,nan,nan,nan
30.171239545999924,1526834.0530647526,-4462995.115522951,4278784.356722473,0.4143339557789705,-1.0011171017698914,-0.8063910591172865,0.6315526048145971,-0.06291774845257857,-0.4406256729776453,0.6348477621849953,0.5324,-1.3364,7.975113299999998,-0.1837140842854448,0.27066238790693314,-0.09958376018540563,nan,nan,nan
30.24547729599999,1526834.0838741076,-4462995.189964768,4278784.296760242,0.40483026781973086,-0.940480786969069,-0.8714241742512725,0.6338366781528595,-0.07135218695140888,-0.4347385185684351,0.6357376439027862,0.4224,-1.9764000000000002,8.375113299999999,0.25043656714814466,0.015407984802762441,0.13385402726883597,nan,nan,nan
30.321524587000113,1526834.1147874363,-4462995.261781017,4278784.230217239,0.511581042523055,-0.9525155820152498,-0.9250021785939302,0.6387853519423388,-0.06000573664612629,-0.4267125448067317,0.637392336300622,0.7223999999999999,-0.7564,9.845113299999998,-0.045178574908394886,-0.3816544200259475,-0.05922302123303676,nan,nan,nan
30.399659546000294,1526833.5159385388,-4462995.312978552,4278784.3555935435,-0.08137892378706446,-1.016996901150153,-0.639712171660724,0.6332041916241017,-0.07020154289840681,-0.41178485036184914,0.6515807184482707,0.6424,-1.5664,10.755113299999998,0.1239001963785558,-0.06095016997198948,-0.018862282280667886,42.403051,-71.113691,23.3
30.58319829600032,1526833.5007269564,-4462995.503078536,4278784.236016706,0.07280798131135735,-1.249775694987479,-0.5176188537336593,0.62807525761988,-0.08264665836745606,-0.41483975602668344,0.653145449347142,1.1623999999999999,-1.5964,11.155113299999998,0.07372198038371883,0.12885438618239387,0.006226825716750603,nan,nan,nan
30.66403992100004,1526833.5066220579,-4462995.604270114,4278784.19410625,0.056225681922681986,-1.2070082442857566,-0.4880721409721187,0.6190292651979882,-0.05482770873638372,-0.4129641973038188,0.6657756855616715,-0.05760000000000004,-1.9964000000000002,9.445113299999997,-0.253527254365218,-0.4111068511533518,-0.6231825357837045,nan,nan,nan
30.747932628999934,1526833.5107776113,-4462995.693478233,4278784.15803359,0.13316523930724172,-1.1335507723630116,-0.46453763400591713,0.6056444248382302,-0.05016889343772769,-0.4106197503076155,0.6797568197581093,-0.25760000000000005,-1.0264,9.625113299999997,0.1402626581160026,0.005590507760294337,-0.523916934576527,nan,nan,nan
30.824537045999932,1526833.5223067082,-4462995.791618084,4278784.117815141,0.13837921187642122,-1.0573501392231732,-0.5580063201171521,0.5903541001958041,-0.034986615096143876,-0.4122475119346349,0.6930439831688634,0.9124,-1.0964,8.365113299999997,-0.0942659601207354,-0.08603927796940795,-0.5719134890063711,nan,nan,nan
