# t [sec],r_ecef_X,r_ecef_Y,r_ecef_Z,v_ecef_X,v_ecef_Y,v_ecef_Z,q_e2b_scalar,q_e2b_i,q_e2b_j,q_e2b_k,accel_X [m/s^2],accel_Y [m/s^2],accel_Z [m/s^2],gyro_X [rad/s],gyro_Y [rad/s],gyro_Z [rad/s],gps_lat [deg],gps_long [deg],gps_alt [m]
0.0,1526838.6327670775,-4462986.241606824,4278788.890921753,0.0,0.0,0.0,0.901797015,-0.39979036,-0.066508461,-0.150021455,0.0,0.0,0.0,0.0,0.0,0.0,0.0,0.0,0.0
0.08601387499993507,1526838.6327670775,-4462986.241606824,4278788.890921753,0.0013376025263379387,-0.0019120102902066005,-0.0011154381228489774,0.9017896121440685,-0.3998106761158342,-0.06645376255375439,-0.15003605130782532,0.009999999999999953,0.0,9.818563300000001,0.00039269908169872405,-0.0014398966328953218,0.001265363707695889,nan,nan,nan
0.168580916999872,1526838.6328799601,-4462986.241768182,4278788.8908276195,0.003284430251462328,-0.005103134793201125,-0.003282598485095045,0.9018047820138352,-0.399793919572694,-0.06639037741011866,-0.1500175834819657,0.009999999999999953,-0.010000000000000009,9.818563300000001,-0.000698131700797732,-0.0014398966328953218,0.00017453292519943288,nan,nan,nan
0.25474391699981425,1526838.633162877,-4462986.24220776,4278788.890544861,0.003970135689613241,-0.0075475939889798616,-0.004181222536195017,0.9018022893133054,-0.39980196744317736,-0.0664362468995324,-0.14999081129354333,-5.551115123125783e-17,0.010000000000000009,9.818563300000001,0.00039269908169872405,0.0007417649320975901,-0.000916297857297023,nan,nan,nan
0.3395249589998457,1526838.6334997686,-4462986.242848222,4278788.890190057,0.005501397217963444,-0.009682961649009059,-0.005087232025305588,0.901817541579634,-0.3997851152913747,-0.06637251334656465,-0.14997224183005495,0.009999999999999953,0.010000000000000009,9.818563300000001,-0.000698131700797732,-0.0014398966328953218,0.00017453292519943288,nan,nan,nan
0.41505916699998124,1526838.633972791,-4462986.243680785,4278788.889752646,0.006688087876434462,-0.013766674304198312,-0.007879666097736826,0.9018103830768168,-0.3997359791748909,-0.0665006431708511,-0.1500894564669487,-5.551115123125783e-17,-0.020000000000000018,9.818563300000001,-0.000698131700797732,0.004014257279586958,0.001265363707695889,nan,nan,nan
0.4954611670000304,1526838.6345105988,-4462986.244787802,4278788.88911902,0.005024012527565264,-0.01610081096103866,-0.01034458422093687,0.9018299523022404,-0.39967021427295424,-0.06649523396116905,-0.15014939683776254,-0.030000000000000027,0.0,9.7985633,-0.001788962483294188,0.0007417649320975901,0.001265363707695889,nan,nan,nan
0.5703664170000593,1526838.6348861514,-4462986.245991361,4278788.888345746,0.00561413760668486,-0.01746423438433231,-0.01255778324268092,0.9018148464062823,-0.3996975661431703,-0.0664126172876937,-0.15020387226094628,-5.551115123125783e-17,0.0,9.7985633,0.00039269908169872405,-0.0014398966328953218,0.002356194490192345,nan,nan,nan
0.6463072920000741,1526838.6353134033,-4462986.24732044,4278788.887390063,0.006505974251090146,-0.019960095291548963,-0.013804916020909663,0.9018257652871162,-0.39967622968694483,-0.06639288530044124,-0.15020381428500135,-5.551115123125783e-17,0.0,9.818563300000001,-0.000698131700797732,-0.00034906585039886593,0.00017453292519943288,nan,nan,nan
0.7204681250000249,1526838.635796263,-4462986.248801837,4278788.886365491,0.007853966496114112,-0.021567476471537117,-0.016539115948361827,0.9018195244524243,-0.3997067724269259,-0.06629053199581908,-0.15020521734250528,0.009999999999999953,-0.010000000000000009,9.7985633,0.00039269908169872405,-0.002530727415391778,0.001265363707695889,nan,nan,nan
0.7970268750000287,1526838.6363974207,-4462986.250452653,4278788.885099555,0.007497765932745648,-0.023295269138032593,-0.018808779147313215,0.9018158405587946,-0.3997445348448511,-0.06614732399950249,-0.15018997524255198,-0.010000000000000064,0.0,9.7985633,0.00039269908169872405,-0.003621558197888234,0.001265363707695889,nan,nan,nan
0.8715407919999052,1526838.6369557693,-4462986.252187421,4278788.883698891,0.007341601097363426,-0.02386926913162246,-0.019929543377907588,0.9017988105256004,-0.39975076764465256,-0.06619113631809001,-0.15025632476467868,-5.551115123125783e-17,0.01999999999999999,9.7985633,0.00039269908169872405,0.001832595714594046,0.001265363707695889,nan,nan,nan
0.9476749169998584,1526838.6375148196,-4462986.254005024,4278788.882181291,0.006559617661985401,-0.024684806083179356,-0.021092214283173816,0.901815974070296,-0.3997266682235279,-0.06618799347068255,-0.15021880607843638,-0.010000000000000064,0.01999999999999999,9.7985633,-0.000698131700797732,-0.00034906585039886593,-0.000916297857297023,nan,nan,nan
1.0257543749999058,1526838.633715647,-4462986.244278443,4278788.891218644,0.00015149587226077899,-0.006384467607856024,0.00047424584043966045,0.9024367844672192,-0.3983230465665505,-0.0659478290681105,-0.1503245988265241,0.009999999999999953,-0.010000000000000009,9.818563300000001,0.00148352986419518,0.0007417649320975901,0.00017453292519943288,42.403123,-71.113596,21.3
1.1007007499997599,1526838.6337275254,-4462986.24477903,4278788.891255828,0.0004159454227642828,-0.008023785229063971,0.00039371964680280647,0.9023904535639967,-0.3984196385063537,-0.06592975204346357,-0.15035467841494962,-5.551115123125783e-17,-0.010000000000000009,9.818563300000001,0.002574360646691636,-0.00034906585039886593,0.001265363707695889,nan,nan,nan
1.1874879169999986,1526838.6337592904,-4462986.245391795,4278788.891285895,0.0005171251183019726,-0.009237794082337134,0.0007676231900593106,0.9023847744691664,-0.39843579669940976,-0.06591621410616977,-0.1503518805648691,-5.551115123125783e-17,0.0,9.818563300000001,0.00039269908169872405,-0.00034906585039886593,0.00017453292519943288,nan,nan,nan
1.261614584000199,1526838.6338029373,-4462986.246171494,4278788.891350686,0.001207248720357032,-0.009740058746836897,0.000594481926592963,0.9023701073155527,-0.3984990808331998,-0.06588497357480073,-0.15028587030125518,0.009999999999999953,0.0,9.808563300000001,0.00148352986419518,-0.0014398966328953218,-0.000916297857297023,nan,nan,nan
1.33409895900013,1526838.6338904288,-4462986.246877374,4278788.891393769,0.0018930304015598448,-0.010718979758807232,-0.0001555725043707462,0.9023864077697319,-0.398476140236529,-0.06588193623943046,-0.15025015064460268,0.009999999999999953,-0.010000000000000009,9.808563300000001,-0.000698131700797732,-0.00034906585039886593,-0.000916297857297023,nan,nan,nan
1.4086886250001953,1526838.6340312124,-4462986.247674539,4278788.891382199,0.002042325041846718,-0.012467830122177479,-0.00039756618656154596,0.9023901876019674,-0.3984728007227729,-0.06575712397965328,-0.1502909764640074,-5.551115123125783e-17,-0.010000000000000009,9.818563300000001,-0.000698131700797732,-0.002530727415391778,0.002356194490192345,nan,nan,nan
1.4833484169998883,1526838.6341832895,-4462986.248602927,4278788.891352595,0.002228202584705949,-0.014760937185097665,-0.00011019799940346908,0.9023718953248778,-0.3985164269440911,-0.06580285811717526,-0.15026511372856458,-5.551115123125783e-17,-0.010000000000000009,9.8285633,0.00148352986419518,0.0007417649320975901,-0.000916297857297023,nan,nan,nan
1.5557199999998375,1526838.6343441755,-4462986.249668731,4278788.891344638,0.001785279846269125,-0.015047469989948912,-0.0008152439495024838,0.9023403102190933,-0.3986146067100423,-0.06573081768085896,-0.15022589668515618,-5.551115123125783e-17,0.0,9.7985633,0.002574360646691636,-0.002530727415391778,0.00017453292519943288,nan,nan,nan
1.6313343339998028,1526838.6344802466,-4462986.250815624,4278788.891282501,0.002134108723773495,-0.015817807623616096,-7.124156178371643e-05,0.9023539388452656,-0.39859946208648445,-0.06567354740920443,-0.15020926603320958,0.009999999999999953,0.010000000000000009,9.818563300000001,-0.000698131700797732,-0.0014398966328953218,0.00017453292519943288,nan,nan,nan
1.7060576670000955,1526838.6346388122,-4462986.251990897,4278788.891277207,0.0015360023363100023,-0.016384317762697363,0.0022805483296081813,0.9023449802292568,-0.39862392541184266,-0.06560765187708746,-0.150226959352292,-5.551115123125783e-17,0.03,9.8285633,0.00039269908169872405,-0.0014398966328953218,0.001265363707695889,nan,nan,nan
1.780552666999938,1526838.6347534684,-4462986.253213919,4278788.891447441,0.0011844307623252032,-0.015614067127560891,0.0015137594114296854,0.9023359752774873,-0.3986484999594487,-0.06554144959563962,-0.1502447341564888,0.009999999999999953,0.010000000000000009,9.7885633,0.00039269908169872405,-0.0014398966328953218,0.001265363707695889,nan,nan,nan
1.8547950000001947,1526838.6348417334,-4462986.2543774955,4278788.891560248,0.0002378482141840027,-0.017974326756264234,0.003239955339992287,0.9023458446991087,-0.39864246082156835,-0.06543257539016523,-0.15024893882797136,-0.010000000000000064,0.010000000000000009,9.8385633,-0.000698131700797732,-0.002530727415391778,0.001265363707695889,nan,nan,nan
1.9271053749998828,1526838.6348588432,-4462986.255670485,4278788.891793315,-0.002020719341882374,-0.018950553909503984,0.0024619542743247874,0.9023666294729001,-0.3985750767728558,-0.06547883691745186,-0.15028272243312768,-0.020000000000000018,0.0,9.7985633,-0.001788962483294188,0.001832595714594046,0.00017453292519943288,nan,nan,nan
2.003161416999774,1526838.6347050113,-4462986.257113138,4278788.891980737,-0.0017893299948165547,-0.020313588950940407,0.004890204099117515,0.9023555207812372,-0.39857869783107247,-0.06554027371706017,-0.1503130361237728,0.009999999999999953,0.01999999999999999,9.8385633,0.00039269908169872405,0.001832595714594046,0.00017453292519943288,nan,nan,nan
2.0813482089997706,1526838.6340308094,-4462986.245769228,4278788.8943275465,-0.002194077840826235,-0.011102360173847471,0.012208883794398922,0.9024663369865391,-0.398309111535657,-0.06549577690014034,-0.15038173439206717,-0.010000000000000064,0.010000000000000009,9.8285633,0.00039269908169872405,-0.002530727415391778,0.001265363707695889,42.403123,-71.113596,21.3
2.166432126000018,1526838.6338588186,-4462986.246639526,4278788.895284584,-0.002522552238875435,-0.01283886441121074,0.012237032843523215,0.9024540728759252,-0.39832849414104865,-0.06546485179274569,-0.1504174552419959,-5.551115123125783e-17,-0.010000000000000009,9.818563300000001,0.00039269908169872405,-0.00034906585039886593,0.001265363707695889,nan,nan,nan
2.23871733399983,1526838.6336504482,-4462986.247700055,4278788.896295399,-0.0030792161473421386,-0.01669302923880911,0.01391729369570997,0.9024785401188142,-0.3983159117428697,-0.06538006208453316,-0.15034083648838703,-0.010000000000000064,-0.010000000000000009,9.8485633,-0.000698131700797732,-0.002530727415391778,-0.000916297857297023,nan,nan,nan
2.312685542000054,1526838.633421758,-4462986.24893983,4278788.897329023,-0.004402019660657873,-0.018242153811177775,0.016603867814924605,0.902427246154262,-0.3984473787629924,-0.0653486076330691,-0.15031404389643688,-0.010000000000000064,0.01999999999999999,9.8385633,0.003665191429188092,-0.0014398966328953218,0.00017453292519943288,nan,nan,nan
2.3876326670001617,1526838.6330935853,-4462986.250299791,4278788.898566849,-0.004935533694149484,-0.02004585113860391,0.01544423710263047,0.9024378955143185,-0.3984264532355797,-0.06532927885351654,-0.15031397800280963,-5.551115123125783e-17,-0.020000000000000018,9.808563300000001,-0.000698131700797732,-0.00034906585039886593,0.00017453292519943288,nan,nan,nan
2.4596295010001086,1526838.6327378529,-4462986.25174461,4278788.8996800035,-0.006148227277337885,-0.02205098416196144,0.015367187683223243,0.9024312468437395,-0.3984779444902765,-0.06531825861174144,-0.15022216255776843,-0.010000000000000064,-0.010000000000000009,9.818563300000001,0.00148352986419518,-0.0014398966328953218,-0.002007128639793479,nan,nan,nan
2.5340705419998812,1526838.6322785371,-4462986.253391973,4278788.90082804,-0.007804102832203373,-0.023205933249927646,0.01527771716585084,0.9024533586266161,-0.3984665518406732,-0.06524158592393375,-0.15015285075755005,-0.010000000000000064,0.0,9.808563300000001,-0.000698131700797732,-0.002530727415391778,-0.000916297857297023,nan,nan,nan
2.60873116699986,1526838.6316994168,-4462986.255114019,4278788.901961756,-0.008711805348187638,-0.02465367487655218,0.0157181016888923,0.9024504707547387,-0.39848832130008754,-0.06519190121460548,-0.15013401411658345,-5.551115123125783e-17,0.0,9.818563300000001,0.00039269908169872405,-0.0014398966328953218,0.00017453292519943288,nan,nan,nan
2.6802463760000137,1526838.6310715883,-4462986.256890721,4278788.903094503,-0.011198182382069908,-0.026059347175207803,0.015641869292565985,0.90245307286931,-0.39845038331588645,-0.0652796355504588,-0.15018093435355503,-0.020000000000000018,0.0,9.808563300000001,-0.000698131700797732,0.0029234264970905022,0.00017453292519943288,nan,nan,nan
2.756449542000155,1526838.6302187664,-4462986.258875326,4278788.904285744,-0.01152548782355459,-0.02673300226264913,0.015593819912955092,0.9024612396397368,-0.39842276556295636,-0.06529737881805836,-0.150197415774409,0.009999999999999953,0.0,9.808563300000001,-0.000698131700797732,0.0007417649320975901,0.00017453292519943288,nan,nan,nan
2.831094167000174,1526838.6293583363,-4462986.260871067,4278788.905449893,-0.012890696514450576,-0.02883663564135891,0.01552447097656005,0.9024710998991291,-0.39841669567622634,-0.06518831024819945,-0.15020164851632786,-0.010000000000000064,-0.010000000000000009,9.818563300000001,-0.000698131700797732,-0.002530727415391778,0.001265363707695889,nan,nan,nan
2.907211291999829,1526838.6283779694,-4462986.263064159,4278788.9066305645,-0.013000660792784256,-0.030462702756628046,0.014410843923083654,0.9024529709749312,-0.3984381854789163,-0.06514177207103604,-0.1502737422804747,0.009999999999999953,-0.020000000000000018,9.808563300000001,0.00039269908169872405,-0.00034906585039886593,0.002356194490192345,nan,nan,nan
2.981913084000098,1526838.627408497,-4462986.265335794,4278788.907705195,-0.013816987033190373,-0.032365452462070954,0.014354676663291637,0.9024426149465741,-0.39850023242667354,-0.06507745796195448,-0.15019925601091033,-5.551115123125783e-17,-0.010000000000000009,9.818563300000001,0.00148352986419518,-0.002530727415391778,-0.000916297857297023,nan,nan,nan
3.0580374589999337,1526838.6263547267,-4462986.267804187,4278788.908799973,-0.014550182276752314,-0.03270643442889559,0.0159277382797041,0.902400231529466,-0.39860038890731136,-0.06502231423296556,-0.1502120211801987,0.009999999999999953,0.01999999999999999,9.818563300000001,0.002574360646691636,-0.0014398966328953218,0.001265363707695889,nan,nan,nan
3.1360296670000025,1526838.634712553,-4462986.250840984,4278788.899222636,-0.0026965810130378833,-0.02208848546773277,0.013124384186348892,0.9024293730839222,-0.39839333614506817,-0.06547254696767438,-0.15039056639587584,-0.010000000000000064,0.0,9.808563300000001,-0.001788962483294188,0.0007417649320975901,-0.000916297857297023,42.403123,-71.113596,21.3
3.3215155009997943,1526838.6342300593,-4462986.254793231,4278788.901570954,-0.004313222075397142,-0.029359178205417207,0.015372297820988945,0.902414126945409,-0.39846691473147033,-0.06522581096249645,-0.15039433332000152,-0.010000000000000064,-0.010000000000000009,9.8385633,0.00039269908169872405,-0.002530727415391778,0.001265363707695889,nan,nan,nan
3.3940752919997976,1526838.6338738773,-4462986.257217687,4278788.902840385,-0.005194514917939017,-0.030923774815979282,0.015865234878516786,0.9024094320482122,-0.3984428356706609,-0.06520914875680843,-0.1504934919798951,-5.551115123125783e-17,0.0,9.818563300000001,-0.000698131700797732,0.0007417649320975901,0.002356194490192345,nan,nan,nan
3.468541291999827,1526838.6334876346,-4462986.259517051,4278788.904020059,-0.006158294330174178,-0.03400060523961533,0.015741160900988448,0.9024065357092882,-0.3984646660492954,-0.06515937202407591,-0.15047461916734337,-0.010000000000000064,-0.020000000000000018,9.8285633,0.00039269908169872405,-0.0014398966328953218,0.00017453292519943288,nan,nan,nan
3.5429220840001108,1526838.6330287321,-4462986.262050701,4278788.905193055,-0.006467633699385276,-0.034649663225352775,0.015700783368075587,0.9023978294701175,-0.3984969238405383,-0.06527421623887619,-0.15039160983377206,0.009999999999999953,0.0,9.808563300000001,0.00148352986419518,0.001832595714594046,-0.003097959422289935,nan,nan,nan
3.615095583999846,1526838.63256224,-4462986.264549885,4278788.906325509,-0.005306126490132849,-0.03703745104978433,0.0165306701779215,0.9023950229715938,-0.3985180950454208,-0.06522593014458342,-0.15037329892964316,0.019999999999999962,-0.010000000000000009,9.8385633,0.00039269908169872405,-0.0014398966328953218,0.00017453292519943288,nan,nan,nan
3.6902218340001127,1526838.6321670783,-4462986.267308164,4278788.9075565925,-0.006103656541893713,-0.03850683865785824,0.016915544366240563,0.9024266213059097,-0.39841431396985216,-0.06525152425435353,-0.15044755472110583,-5.551115123125783e-17,0.0,9.818563300000001,-0.002879793265790644,0.001832595714594046,0.001265363707695889,nan,nan,nan
3.766032833999816,1526838.631703025,-4462986.270235791,4278788.9088426605,-0.007578831887602392,-0.04011889027338482,0.01742534920966856,0.9024383035407314,-0.3983777903663213,-0.06532317227187824,-0.15044310607820088,-0.010000000000000064,0.0,9.818563300000001,-0.000698131700797732,0.001832595714594046,-0.000916297857297023,nan,nan,nan
3.840123667000171,1526838.6311378058,-4462986.273227804,4278788.91014222,-0.008398736693863238,-0.04092677254338044,0.018506820421358115,0.9024388688141644,-0.39839090879738764,-0.06532615723507941,-0.15040367541601218,-5.551115123125783e-17,0.010000000000000009,9.818563300000001,0.00039269908169872405,-0.00034906585039886593,-0.000916297857297023,nan,nan,nan
3.9149499169998307,1526838.6305101968,-4462986.276286122,4278788.911525171,-0.00995714925457775,-0.04195243618751869,0.018517410911421027,0.9024684379811059,-0.3983392823568314,-0.0652638699604813,-0.15039003429055112,-0.010000000000000064,0.0,9.808563300000001,-0.001788962483294188,-0.0014398966328953218,0.00017453292519943288,nan,nan,nan
3.987335083999824,1526838.6297927639,-4462986.279308881,4278788.912859389,-0.01136084061965487,-0.04125113567434728,0.019177288417109715,0.9024617984643568,-0.39839076681037894,-0.06525284975055601,-0.15029825477660336,-5.551115123125783e-17,0.01999999999999999,9.7985633,0.00148352986419518,-0.0014398966328953218,-0.002007128639793479,nan,nan,nan
4.063382375999936,1526838.628928125,-4462986.282448379,4278788.914318914,-0.011305415025190755,-0.042908308263184855,0.02023151673675768,0.9024664276546758,-0.39837211049612214,-0.06521658066418505,-0.15033564679838846,0.009999999999999953,0.0,9.8285633,-0.000698131700797732,-0.00034906585039886593,0.001265363707695889,nan,nan,nan
4.172339458999886,1526838.6364660019,-4462986.256679196,4278788.904176925,0.0028454334839277205,-0.02570542698847012,0.021963169291974793,0.9025178344564586,-0.3981131459455569,-0.06560891899573582,-0.15054219281753442,-5.551115123125783e-17,0.0,9.818563300000001,0.00148352986419518,-0.002530727415391778,0.00017453292519943288,42.403123,-71.113596,21.3
4.247230626000146,1526838.6367764652,-4462986.259483899,4278788.906573313,0.0032285102255365326,-0.029320556917261882,0.02531838250411007,0.9025244505188617,-0.3980864277063132,-0.06555693234877208,-0.1505958215536416,-5.551115123125783e-17,0.0,9.8485633,-0.000698131700797732,-0.00034906585039886593,0.001265363707695889,nan,nan,nan
4.423304292000012,1526838.6373462274,-4462986.264658342,4278788.911041459,0.0029714371951260286,-0.03285736497902537,0.03344882173937909,0.9025176271394785,-0.3981382626653399,-0.06543878703358869,-0.1505510618118227,-5.551115123125783e-17,0.01999999999999999,9.8485633,0.00039269908169872405,-0.0014398966328953218,0.00017453292519943288,nan,nan,nan
4.497471583999868,1526838.6375675753,-4462986.267105947,4278788.913533123,0.002500113712645838,-0.033879068574535494,0.03528814370339224,0.9024932484266189,-0.3981845747235336,-0.06546837054271598,-0.15056186107986932,-5.551115123125783e-17,0.010000000000000009,9.8285633,0.00148352986419518,0.0007417649320975901,0.00017453292519943288,nan,nan,nan
4.570007541999985,1526838.6377477155,-4462986.269547028,4278788.916075731,0.0022407002878441027,-0.03532062152800592,0.035459584560018034,0.9025001889243146,-0.39817284146627024,-0.06539856953375117,-0.15058162228484698,-5.551115123125783e-17,-0.010000000000000009,9.818563300000001,-0.000698131700797732,-0.0014398966328953218,0.001265363707695889,nan,nan,nan
4.644296083999961,1526838.6379147475,-4462986.272179987,4278788.91871905,0.0013711919996475062,-0.035296653188114875,0.035209063725774606,0.902476590905909,-0.3982042783452502,-0.06551775054762556,-0.15058811538202602,-5.551115123125783e-17,0.0,9.7985633,0.00148352986419518,0.0029234264970905022,-0.000916297857297023,nan,nan,nan
4.718543251000028,1526838.6380169094,-4462986.274809795,4278788.921342332,0.0008362280361866401,-0.03807314755562136,0.03635740277163281,0.9024514051485623,-0.39826549668591277,-0.06545781081630424,-0.15060322391897904,-0.010000000000000064,-0.010000000000000009,9.8385633,0.00148352986419518,-0.0014398966328953218,0.001265363707695889,nan,nan,nan
4.791210375999981,1526838.6380773752,-4462986.277562784,4278788.923971258,0.001305292270238909,-0.03719680548331051,0.03653549900410531,0.9024565650436437,-0.39823332506848585,-0.06551023883547025,-0.15063457829791096,0.019999999999999962,0.010000000000000009,9.7985633,-0.000698131700797732,0.001832595714594046,0.00017453292519943288,nan,nan,nan
4.867207793000034,1526838.6381765474,-4462986.280388882,4278788.926747113,0.0013056475407782573,-0.03922840621166713,0.03608901006671501,0.9024509112181021,-0.3982494011294701,-0.06549677539472504,-0.15063180378417154,-5.551115123125783e-17,-0.020000000000000018,9.818563300000001,0.00039269908169872405,-0.00034906585039886593,0.00017453292519943288,nan,nan,nan
4.941309208999883,1526838.6382737525,-4462986.283309431,4278788.929433933,-0.00026011323375537375,-0.03901696237635111,0.036279617822763136,0.902440049563877,-0.39825292000269963,-0.06555687232944189,-0.15066142737806587,-0.010000000000000064,0.010000000000000009,9.7985633,0.00039269908169872405,0.001832595714594046,0.00017453292519943288,nan,nan,nan
5.017481668000073,1526838.6382539317,-4462986.286282576,4278788.932198489,0.0005428705939308585,-0.040810948629815165,0.03580053104577331,0.9024473916795126,-0.3982405224926328,-0.06548304916211786,-0.15068232253590746,0.009999999999999953,-0.020000000000000018,9.818563300000001,-0.000698131700797732,-0.0014398966328953218,0.001265363707695889,nan,nan,nan
5.092334418000064,1526838.638294467,-4462986.289329873,4278788.934871665,-0.00034829391639345196,-0.04253313578936136,0.03485373991361075,0.9024194772788461,-0.3982957403085964,-0.0654597361270728,-0.15071368147158906,-0.010000000000000064,-0.020000000000000018,9.808563300000001,0.00148352986419518,-0.00034906585039886593,0.001265363707695889,nan,nan,nan
5.182273834000171,1526838.639523992,-4462986.263908599,4278788.912247163,0.007868357463317035,-0.031863326446281884,0.028880626947564287,0.9023706806255274,-0.398323878009234,-0.06571406314146494,-0.15082077249931777,-5.551115123125783e-17,0.01999999999999999,9.8285633,0.00148352986419518,-0.0014398966328953218,0.00017453292519943288,42.403123,-71.113596,21.3
5.4605367929998465,1526838.6418231449,-4462986.273219138,4278788.920686151,0.0013004174004662607,-0.03415093562729456,0.03521987139966028,0.9023568668831486,-0.39818022681547693,-0.06600620855921588,-0.15115479731184275,-0.020000000000000018,0.01999999999999999,9.818563300000001,-0.000698131700797732,0.0029234264970905022,0.001265363707695889,nan,nan,nan
5.534443084000031,1526838.6419192504,-4462986.275743018,4278788.923289029,0.0029436575992860727,-0.03564630265115,0.03579720707668334,0.9023540319043863,-0.39820196614533504,-0.065956749346108,-0.15113604148688728,0.009999999999999953,-0.010000000000000009,9.8285633,0.00039269908169872405,-0.0014398966328953218,0.00017453292519943288,nan,nan,nan
5.611505834000127,1526838.6421458796,-4462986.278487391,4278788.92604502,0.0031456056420336356,-0.03543877987614509,0.03648051416506805,0.902318888824021,-0.3982616933982644,-0.06591601988954691,-0.15120623440055597,-5.551115123125783e-17,0.010000000000000009,9.808563300000001,0.00148352986419518,-0.00034906585039886593,0.002356194490192345,nan,nan,nan
5.684974625999985,1526838.642377383,-4462986.281095537,4278788.928729834,0.004026273346165029,-0.037311987872058264,0.03801751687296419,0.9023107687503309,-0.39827120521256676,-0.06593920750788299,-0.151219526403482,-5.551115123125783e-17,0.0,9.8385633,0.00039269908169872405,0.0007417649320975901,0.00017453292519943288,nan,nan,nan
5.762248376000116,1526838.6426881354,-4462986.283975319,4278788.931664069,0.005336468363912569,-0.03790043819094803,0.0374835061523562,0.9022846690560068,-0.3983346689850596,-0.06587715743479157,-0.15123514193503937,0.009999999999999953,-0.010000000000000009,9.808563300000001,0.00148352986419518,-0.0014398966328953218,0.001265363707695889,nan,nan,nan
5.835716501000206,1526838.6430807319,-4462986.2867636,4278788.934421678,0.004437984612227155,-0.03925915994420083,0.036909843441824644,0.9022848885290646,-0.3983401674245029,-0.0657014974927819,-0.15129575252551802,-0.020000000000000018,-0.010000000000000009,9.808563300000001,-0.000698131700797732,-0.003621558197888234,0.003447025272688801,nan,nan,nan
5.913057333999859,1526838.6434230518,-4462986.28979182,4278788.937268685,0.004937267365829714,-0.040762646232973446,0.03685912305269497,0.9023266518589177,-0.3982362512502214,-0.06570670436134905,-0.15131798007494332,-5.551115123125783e-17,-0.010000000000000009,9.818563300000001,-0.002879793265790644,0.0007417649320975901,0.00017453292519943288,nan,nan,nan
5.9870625839998866,1526838.6437876385,-4462986.29280189,4278788.939990504,0.0043918561224461,-0.04138650545822488,0.038019051500332426,0.9023016660891933,-0.3982969655606185,-0.06564734361323085,-0.15133293571176312,-0.010000000000000064,0.010000000000000009,9.818563300000001,0.00148352986419518,-0.0014398966328953218,0.001265363707695889,nan,nan,nan
6.063989333999871,1526838.6441269626,-4462986.295999499,4278788.942927936,0.003930958335398907,-0.042611557596740415,0.03860039254025245,0.9022782794768368,-0.39836686240064173,-0.06554721091575977,-0.15133179779311676,-0.010000000000000064,0.0,9.818563300000001,0.00148352986419518,-0.002530727415391778,0.001265363707695889,nan,nan,nan
6.1414638759997615,1526838.6444314877,-4462986.299300549,4278788.945918247,0.0040909026353347835,-0.043740947066523,0.0402145938108875,0.9022865723729617,-0.3983387433542113,-0.06556522433915514,-0.15134856713078226,-5.551115123125783e-17,0.010000000000000009,9.8285633,-0.000698131700797732,0.0007417649320975901,0.00017453292519943288,nan,nan,nan
6.235887751000064,1526838.6418306443,-4462986.27003316,4278788.918292603,0.00922347265234427,-0.03425000489252983,0.030157517980977024,0.9022497316874276,-0.39835332368995097,-0.06577428489180018,-0.151439080751473,-0.010000000000000064,-0.010000000000000009,9.818563300000001,0.00039269908169872405,-0.00034906585039886593,0.00017453292519943288,42.403123,-71.113596,21.3
6.308587209000052,1526838.6426267603,-4462986.272989419,4278788.920895623,0.01080602849681647,-0.035613025281212574,0.030068433612697433,0.9022777143028077,-0.3982795174088697,-0.06578722183609058,-0.1514608671733149,0.009999999999999953,-0.010000000000000009,9.818563300000001,-0.001788962483294188,0.0007417649320975901,0.00017453292519943288,nan,nan,nan
6.3828376679998655,1526838.6434310193,-4462986.275639986,4278788.923133522,0.01133236838290602,-0.03651690688533327,0.03167488741942696,0.90228486306663,-0.39826746715073663,-0.06571510435516972,-0.1514812731214783,-5.551115123125783e-17,0.010000000000000009,9.8285633,-0.000698131700797732,-0.0014398966328953218,0.001265363707695889,nan,nan,nan
6.457647208999788,1526838.6442738269,-4462986.278355811,4278788.9254892375,0.011042724110842587,-0.03757252503587516,0.03120512300279813,0.9022473947178689,-0.3983339506706883,-0.06562301824725758,-0.151569530251845,-0.010000000000000064,-0.010000000000000009,9.808563300000001,0.00148352986419518,-0.0014398966328953218,0.003447025272688801,nan,nan,nan
6.5296976680001535,1526838.6450716802,-4462986.281070482,4278788.927743855,0.011949589697791639,-0.03787740706569098,0.034289829592166345,0.9022394284691664,-0.39834327537179803,-0.06564578490400315,-0.15158258528862123,0.009999999999999953,0.03,9.8385633,0.00039269908169872405,0.0007417649320975901,0.00017453292519943288,nan,nan,nan
6.605245375999857,1526838.6459785595,-4462986.283945077,4278788.930346182,0.012015540910100373,-0.03782151700132774,0.03485684996934527,0.9022436059932375,-0.39834763407413204,-0.06570267544026706,-0.1515216052864967,-5.551115123125783e-17,0.010000000000000009,9.808563300000001,0.00039269908169872405,0.0007417649320975901,-0.002007128639793479,nan,nan,nan
6.679929793000156,1526838.646875811,-4462986.286769371,4278788.93294909,0.013166408536133793,-0.04080647134066118,0.03630871249525978,0.902257764910303,-0.3983178501803089,-0.06573625748181794,-0.15150102605537266,-5.551115123125783e-17,-0.010000000000000009,9.8485633,-0.000698131700797732,0.0007417649320975901,-0.000916297857297023,nan,nan,nan
6.754986208999981,1526838.6478592507,-4462986.289817331,4278788.9356611,0.013285902454909152,-0.04066989866242132,0.03582381424408602,0.9022583763977986,-0.3983309868696931,-0.06573926300506913,-0.15146153629129783,-5.551115123125783e-17,0.0,9.7985633,0.00039269908169872405,-0.00034906585039886593,-0.000916297857297023,nan,nan,nan
6.829142251000121,1526838.6488460405,-4462986.292838026,4278788.938321859,0.012700124075291972,-0.040842838464615006,0.03637360437941165,0.9022824552569991,-0.3982674750813146,-0.06575039422029706,-0.15148028071130668,-0.010000000000000064,0.010000000000000009,9.808563300000001,-0.001788962483294188,0.0007417649320975901,0.00017453292519943288,nan,nan,nan
6.900869418000184,1526838.6497612658,-4462986.295781336,4278788.940943097,0.01317611150059561,-0.03950701821936514,0.037025827994096684,0.902285999713275,-0.39826434246670495,-0.06562944740979648,-0.1515198483051265,0.009999999999999953,0.01999999999999999,9.7985633,-0.000698131700797732,-0.002530727415391778,0.002356194490192345,nan,nan,nan
6.977758126000026,1526838.6507665352,-4462986.2987955175,4278788.943767976,0.015132245491295547,-0.04038970184263396,0.03708387563558622,0.9022878551748708,-0.39823937515039276,-0.0656306113137547,-0.15157390903148102,0.019999999999999962,-0.010000000000000009,9.818563300000001,-0.000698131700797732,0.0007417649320975901,0.001265363707695889,nan,nan,nan
7.051973417999761,1526838.6518933491,-4462986.301803113,4278788.946529405,0.01552800584482669,-0.03903912486326938,0.03886554669821211,0.9023173224163397,-0.3981880054406871,-0.06556847411083279,-0.1515603435932263,0.009999999999999953,0.03,9.808563300000001,-0.001788962483294188,-0.0014398966328953218,0.00017453292519943288,nan,nan,nan
7.128224625999792,1526838.653076723,-4462986.304778245,4278788.94949131,0.015266939823318669,-0.03830700213433441,0.039120943893034145,0.902308072638699,-0.39821316530008055,-0.06550092924899215,-0.15157851383685803,-5.551115123125783e-17,0.010000000000000009,9.7985633,0.00039269908169872405,-0.0014398966328953218,0.001265363707695889,nan,nan,nan
7.2127805009999975,1526838.654218012,-4462986.307641908,4278788.952415819,0.016707611597436473,-0.03818775636711064,0.04036697594804265,0.9023078435613683,-0.3982413516162011,-0.06541411855649053,-0.15154331051140804,0.019999999999999962,0.010000000000000009,9.818563300000001,0.00039269908169872405,-0.002530727415391778,0.00017453292519943288,nan,nan,nan
7.290768876000129,1526838.6439268081,-4462986.274433312,4278788.922472701,0.011899234188636075,-0.027461275830321367,0.03244370474700154,0.902298729707759,-0.39827147215146824,-0.06538316564995557,-0.15153177569210435,-0.020000000000000018,0.010000000000000009,9.818563300000001,0.00148352986419518,-0.0014398966328953218,0.00017453292519943288,42.403123,-71.113596,21.3
7.363614626000071,1526838.644836929,-4462986.276533706,4278788.92495418,0.011367320986516926,-0.029165509104001446,0.03253633767176701,0.9022984831368988,-0.398300304961555,-0.06529434552291505,-0.15149575372221935,-0.010000000000000064,-0.010000000000000009,9.818563300000001,0.00039269908169872405,-0.002530727415391778,0.00017453292519943288,nan,nan,nan
7.438120375999915,1526838.6456833985,-4462986.278705521,4278788.927377003,0.010717603228371607,-0.03088561973803399,0.03260979204718601,0.9022902826513531,-0.3983099151082923,-0.06531781035286739,-0.15150921281169152,-0.010000000000000064,-0.010000000000000009,9.818563300000001,0.00039269908169872405,0.0007417649320975901,0.00017453292519943288,nan,nan,nan
7.512154625999756,1526838.6464774439,-4462986.280993773,4278788.9297929965,0.00994709770686768,-0.032126653267782905,0.03321447900963643,0.9022951998506794,-0.3982993090180014,-0.06546236182168443,-0.15144541096935663,-0.010000000000000064,0.0,9.818563300000001,0.00039269908169872405,0.0029234264970905022,-0.003097959422289935,nan,nan,nan
7.584359460000087,1526838.6471961797,-4462986.283315111,4278788.932192937,0.008646859612235174,-0.03349132616289268,0.03276700639405256,0.9023029349413367,-0.39827307779254295,-0.06547916137379588,-0.15146104807650967,-0.020000000000000018,-0.010000000000000009,9.808563300000001,-0.000698131700797732,0.0007417649320975901,0.00017453292519943288,nan,nan,nan
7.659232168000017,1526838.647842539,-4462986.285818613,4278788.934642294,0.006984186189552254,-0.03386927309551784,0.0323796875379121,0.9023062110501634,-0.39829240732494847,-0.06544537944441403,-0.15140529262122052,-0.020000000000000018,0.0,9.7985633,0.00039269908169872405,-0.0014398966328953218,-0.000916297857297023,nan,nan,nan
7.73333308500014,1526838.6483603213,-4462986.288329558,4278788.937042807,0.005964150850665555,-0.03404267220630779,0.031981431892273766,0.9023202693703251,-0.3982628475879073,-0.06547872260133974,-0.15138485115056133,-0.010000000000000064,0.0,9.7985633,-0.000698131700797732,0.0007417649320975901,-0.000916297857297023,nan,nan,nan
7.805485375999979,1526838.648791024,-4462986.290787959,4278788.939352354,0.006024253733253092,-0.03495095415402138,0.03259619767054462,0.9023194548683552,-0.3982332475360393,-0.06551536852895257,-0.15145170506215835,-5.551115123125783e-17,0.0,9.818563300000001,-0.000698131700797732,0.001832595714594046,0.001265363707695889,nan,nan,nan
7.882064710000122,1526838.649249541,-4462986.29344814,4278788.941833311,0.0045623802948281545,-0.03586369606002925,0.03383064815966536,0.9023359601945417,-0.39814929210243427,-0.06563915067273234,-0.15152048902320983,-0.020000000000000018,0.010000000000000009,9.818563300000001,-0.001788962483294188,0.004014257279586958,0.00017453292519943288,nan,nan,nan
7.956195250999826,1526838.6495897982,-4462986.296122813,4278788.944356361,0.0031569004051649075,-0.0338666961413665,0.03470891359426515,0.9023223949083444,-0.39814659132166036,-0.0657360614160814,-0.15156634933935287,-0.010000000000000064,0.03,9.7885633,0.00039269908169872405,0.0029234264970905022,0.00017453292519943288,nan,nan,nan
8.032315710000148,1526838.6498302573,-4462986.298702418,4278788.947000118,0.003467294586977464,-0.03406081786468928,0.0349317012582498,0.9023489667190145,-0.39810306937042333,-0.06561847407019006,-0.15157343050950392,-5.551115123125783e-17,0.0,9.808563300000001,-0.001788962483294188,-0.002530727415391778,0.001265363707695889,nan,nan,nan
8.10713454300003,1526838.6500894083,-4462986.301248177,4278788.949610969,0.002741280328488487,-0.034002023202695957,0.03577393271858526,0.9023434045825509,-0.3981188957164874,-0.065605245923153,-0.15157070080976415,-0.010000000000000064,0.010000000000000009,9.808563300000001,0.00039269908169872405,-0.00034906585039886593,0.00017453292519943288,nan,nan,nan
8.19301229299981,1526838.6502978473,-4462986.303833592,4278788.952331115,0.003036472416073759,-0.037010227501084285,0.036468620711279494,0.9023275188623855,-0.3981696964115069,-0.06561458475805587,-0.15152778090829683,-0.010000000000000064,-0.020000000000000018,9.8385633,0.00148352986419518,-0.00034906585039886593,-0.000916297857297023,nan,nan,nan
8.26786362599978,1526838.6505552395,-4462986.306970833,4278788.955422445,0.004970834602620893,-0.03728692883731132,0.036090363422401524,0.9022690048745912,-0.3983197969463379,-0.06557887920047413,-0.1514971727881342,0.019999999999999962,-0.010000000000000009,9.808563300000001,0.003665191429188092,-0.0014398966328953218,0.00017453292519943288,nan,nan,nan
8.346408751000126,1526838.643623828,-4462986.274358796,4278788.922626512,0.008042925602588015,-0.028160844163895405,0.02665285433453493,0.9021932208685097,-0.3984397703795344,-0.06575287104642444,-0.15155758676063028,0.009999999999999953,0.010000000000000009,9.8485633,0.002574360646691636,0.0007417649320975901,0.00017453292519943288,42.403123,-71.113596,21.3
8.535563626000112,1526838.645171006,-4462986.279775959,4278788.927753591,0.011250585412479088,-0.03004549969546998,0.024908610617730226,0.9021709355927524,-0.3985226329025104,-0.06604944386949038,-0.15134327060502245,0.009999999999999953,-0.010000000000000009,9.808563300000001,0.00148352986419518,0.001832595714594046,-0.003097959422289935,nan,nan,nan
8.613994793000074,1526838.646053685,-4462986.282133218,4278788.929707828,0.012479485279970256,-0.029771364624309505,0.022977719623931164,0.9021452160532749,-0.3985713723507519,-0.06608063408297547,-0.1513546188610231,0.009999999999999953,-0.010000000000000009,9.7885633,0.00148352986419518,0.0007417649320975901,0.00017453292519943288,nan,nan,nan
8.688124209999842,1526838.6469824999,-4462986.2843490215,4278788.931417998,0.013369006505539573,-0.03088218366062333,0.023136271082159182,0.9021288573906484,-0.39863603774684214,-0.0660003572093685,-0.15131684465889064,-5.551115123125783e-17,0.0,9.818563300000001,0.00148352986419518,-0.002530727415391778,0.00017453292519943288,nan,nan,nan
8.760391876000085,1526838.6479482178,-4462986.286579814,4278788.93308926,0.012932067438937796,-0.030819860919083442,0.02279195419563254,0.902122714314862,-0.3986658518341781,-0.06590077609849647,-0.15131832395607828,-0.010000000000000064,0.010000000000000009,9.7985633,0.00039269908169872405,-0.002530727415391778,0.001265363707695889,nan,nan,nan
8.836542834999818,1526838.648932819,-4462986.288926328,4278788.934824558,0.014148967159462457,-0.03138213788507509,0.023441182485673423,0.9021107601350139,-0.39868470551175345,-0.06587073990658174,-0.15135299210963515,0.009999999999999953,0.010000000000000009,9.818563300000001,0.00039269908169872405,-0.00034906585039886593,0.001265363707695889,nan,nan,nan
8.911455335000028,1526838.6499913586,-4462986.291274148,4278788.936578285,0.014936621967694049,-0.0331044320573,0.021898558217583547,0.9020971195193639,-0.39868201336000647,-0.06596792408124233,-0.15139905127587744,-5.551115123125783e-17,-0.020000000000000018,9.808563300000001,0.00039269908169872405,0.0029234264970905022,0.00017453292519943288,nan,nan,nan
8.987216543000159,1526838.6511273726,-4462986.2937919265,4278788.938243793,0.01664183951845527,-0.03466524009260112,0.02246452122740558,0.9020583758386467,-0.3987729547505696,-0.06596701878517659,-0.15139078614032508,0.009999999999999953,0.0,9.8285633,0.002574360646691636,-0.00034906585039886593,0.00017453292519943288,nan,nan,nan
9.062324293000074,1526838.6523661746,-4462986.296372373,4278788.93991603,0.017621628564622682,-0.03425580156937606,0.02195944192331692,0.90201240713561,-0.39884351781249777,-0.06607600246978478,-0.15143126535406654,0.009999999999999953,0.010000000000000009,9.7985633,0.002574360646691636,0.0029234264970905022,0.00017453292519943288,nan,nan,nan
9.138280792999922,1526838.6537084589,-4462986.298981724,4278788.941588736,0.019172117660194526,-0.03494152365250307,0.022362555656804922,0.9019735893670073,-0.39893459213931415,-0.06607509854328368,-0.15142297444007016,0.009999999999999953,0.010000000000000009,9.818563300000001,0.002574360646691636,-0.00034906585039886593,0.00017453292519943288,nan,nan,nan
9.222827542999767,1526838.655137419,-4462986.30158603,4278788.94325549,0.021192563885252647,-0.037132942135478506,0.02099705149362538,0.9019719397708001,-0.39891907486655975,-0.06602331187002611,-0.1514962521654179,0.009999999999999953,-0.020000000000000018,9.818563300000001,-0.000698131700797732,-0.00034906585039886593,0.002356194490192345,nan,nan,nan
9.297481667999818,1526838.6569337307,-4462986.304733471,4278788.945035229,0.0219080323152884,-0.03772617054999221,0.021982531812531153,0.901985442267822,-0.3988527206347814,-0.06599911254106947,-0.15160107809541598,-5.551115123125783e-17,0.01999999999999999,9.818563300000001,-0.001788962483294188,0.0007417649320975901,0.002356194490192345,nan,nan,nan
9.375475710000046,1526838.6435278626,-4462986.272421076,4278788.9201059695,0.012982015346779572,-0.02711217805256345,0.017926098062218072,0.9020763258373148,-0.39871122047224533,-0.06587410872810937,-0.15148685550042534,-0.030000000000000027,0.0,9.8285633,0.00039269908169872405,-0.0014398966328953218,-0.002007128639793479,42.403123,-71.113596,21.3
9.449463042999923,1526838.644538459,-4462986.274531648,4278788.921501442,0.013341380671020317,-0.029703464256458045,0.01681060536739027,0.9020556980236363,-0.3987111997817337,-0.06595830060617792,-0.15157308458163674,-0.010000000000000064,-0.020000000000000018,9.818563300000001,0.00039269908169872405,0.0029234264970905022,0.001265363707695889,nan,nan,nan
9.523965835000126,1526838.645534094,-4462986.276748345,4278788.922755977,0.014042568598390962,-0.03043396401762073,0.016327368936328752,0.9020581857039777,-0.39874550537063685,-0.06583494098159373,-0.15152165737563633,-5.551115123125783e-17,0.0,9.808563300000001,0.00039269908169872405,-0.003621558197888234,0.00017453292519943288,nan,nan,nan
9.598830543000076,1526838.6465837497,-4462986.279023227,4278788.923976418,0.01561037865087426,-0.03199956237208974,0.01577928666487139,0.9020587934152418,-0.3987586459694919,-0.06583796510589869,-0.15148213886223139,0.009999999999999953,-0.010000000000000009,9.818563300000001,0.00039269908169872405,-0.00034906585039886593,-0.000916297857297023,nan,nan,nan
9.672858668000117,1526838.647740584,-4462986.281394611,4278788.9251457695,0.01644804134744924,-0.03381395695084939,0.015218533948460351,0.9020601908743366,-0.39875676509923536,-0.06593000083080865,-0.15143873307230393,-5.551115123125783e-17,-0.010000000000000009,9.818563300000001,0.00039269908169872405,0.001832595714594046,-0.002007128639793479,nan,nan,nan
9.745174709999901,1526838.648926701,-4462986.283833035,4278788.926243223,0.016355827411960573,-0.034879754456961024,0.015722854796263126,0.9020488623777037,-0.3987746245185449,-0.06590155002489047,-0.15147156493628602,-0.010000000000000064,0.010000000000000009,9.818563300000001,0.00039269908169872405,-0.00034906585039886593,0.001265363707695889,nan,nan,nan
9.819506793000073,1526838.6501453,-4462986.286431769,4278788.927414662,0.016935213266038925,-0.03571108122599455,0.015177420661562753,0.9020289755808432,-0.3988481927102508,-0.0657683412683404,-0.15145419184657413,-5.551115123125783e-17,0.0,9.808563300000001,0.00148352986419518,-0.003621558197888234,0.001265363707695889,nan,nan,nan
9.89404133500011,1526838.6514071978,-4462986.289092718,4278788.928545581,0.018056986106277075,-0.038744323680519735,0.016578255263603577,0.9020342835162842,-0.39881499558552197,-0.06582231198012858,-0.15148654877486964,-5.551115123125783e-17,0.0,9.8485633,-0.000698131700797732,0.001832595714594046,0.00017453292519943288,nan,nan,nan
9.966176710000127,1526838.652711165,-4462986.291890601,4278788.929742764,0.018856178164349154,-0.038317555591251065,0.014027804446161148,0.9020177480456106,-0.3988209413165812,-0.06586487556943155,-0.15155084196747698,0.009999999999999953,-0.010000000000000009,9.7785633,0.00039269908169872405,0.001832595714594046,0.001265363707695889,nan,nan,nan
10.04243066800018,1526838.654148034,-4462986.294810456,4278788.930811703,0.019650964538174727,-0.0397937315898227,0.015011417738367124,0.9020211040438348,-0.39884063423843835,-0.06583047259524359,-0.1514939793340146,-5.551115123125783e-17,0.010000000000000009,9.8285633,0.00039269908169872405,-0.0014398966328953218,-0.000916297857297023,nan,nan,nan
10.116764876000161,1526838.6556097628,-4462986.297770496,4278788.931928322,0.01998253888258287,-0.04018765644433099,0.013902960037202323,0.9020344112313047,-0.39882593111793385,-0.06577456228877095,-0.151477738083765,-5.551115123125783e-17,0.0,9.7985633,-0.000698131700797732,-0.0014398966328953218,0.00017453292519943288,nan,nan,nan
10.202865960000054,1526838.6571336403,-4462986.300835226,4278788.932988568,0.021335921809994336,-0.04146098353804907,0.01490083078277777,0.9020314621600323,-0.39884837440692883,-0.06572354226145495,-0.15145835089468634,0.009999999999999953,0.010000000000000009,9.8285633,0.00039269908169872405,-0.0014398966328953218,0.00017453292519943288,nan,nan,nan
10.388849543000106,1526838.6432549905,-4462986.271065559,4278788.917861934,0.00883252437076808,-0.027633450358162084,0.01819027871604868,0.9022784859052768,-0.3984030745224065,-0.06541345279737973,-0.15129310900846246,-0.010000000000000064,0.0,9.818563300000001,-0.000698131700797732,-0.0014398966328953218,-0.000916297857297023,42.403123,-71.113596,21.3
10.4625867929999,1526838.643940433,-4462986.273210036,4278788.9192735795,0.00805977673431989,-0.029101927524080664,0.01978808366198499,0.9022671649102809,-0.3984066920068067,-0.06547609245424214,-0.15132399929498133,-0.010000000000000064,0.010000000000000009,9.8285633,0.00039269908169872405,0.001832595714594046,0.00017453292519943288,nan,nan,nan
10.543204168000102,1526838.6445904176,-4462986.275556975,4278788.9208694,0.0073367909138475525,-0.030507232097147643,0.019152424286531477,0.9022706914313677,-0.39842753734199987,-0.0654396509586535,-0.1512638407244349,-0.010000000000000064,-0.010000000000000009,9.808563300000001,0.00039269908169872405,-0.0014398966328953218,-0.000916297857297023,nan,nan,nan
10.61811816799991,1526838.6451348618,-4462986.277820838,4278788.922290652,0.00783324249955571,-0.030888404168495667,0.019102100755269035,0.9022839362151358,-0.3984128468948191,-0.06538387023773073,-0.15124765104545654,0.009999999999999953,0.0,9.808563300000001,-0.000698131700797732,-0.0014398966328953218,0.00017453292519943288,nan,nan,nan
10.695778877000066,1526838.6457461424,-4462986.280231267,4278788.923781317,0.008093995833343876,-0.030794707608502638,0.019654825389801855,0.902301516197927,-0.3983881766695154,-0.06538057181269595,-0.15120917942721768,0.009999999999999953,0.010000000000000009,9.808563300000001,-0.000698131700797732,-0.00034906585039886593,-0.000916297857297023,nan,nan,nan
10.770136252000157,1526838.6463506566,-4462986.282531224,4278788.925249272,0.006709048483264191,-0.030603798581330745,0.018650948876392747,0.9023060200630921,-0.39836989094442016,-0.06534495800393014,-0.1512458699173125,-0.010000000000000064,0.0,9.7885633,-0.000698131700797732,-0.00034906585039886593,0.001265363707695889,nan,nan,nan
10.84681250199992,1526838.6468635106,-4462986.284870643,4278788.92667499,0.006531343104337856,-0.031745746173216544,0.019199959506018393,0.9022994627917805,-0.3984014033395788,-0.06523957331045982,-0.15124747896654037,-5.551115123125783e-17,0.0,9.818563300000001,0.00039269908169872405,-0.002530727415391778,0.001265363707695889,nan,nan,nan
10.920960710000145,1526838.6473482873,-4462986.287226912,4278788.928100071,0.006765399215331942,-0.032201434723317796,0.020266839795867086,0.902292684525715,-0.398454477323556,-0.06522828171887947,-0.15115294496945578,0.009999999999999953,0.010000000000000009,9.818563300000001,0.00148352986419518,-0.0014398966328953218,-0.002007128639793479,nan,nan,nan
10.997181626999918,1526838.6478637909,-4462986.289680567,4278788.929644345,0.006945594172997022,-0.03274879538776629,0.021301044731083196,0.9023165488629284,-0.3984045953944624,-0.06514816560521398,-0.15117652295145412,0.009999999999999953,0.010000000000000009,9.818563300000001,-0.001788962483294188,-0.0014398966328953218,0.001265363707695889,nan,nan,nan
11.071545501999935,1526838.6483818912,-4462986.292123433,4278788.931233278,0.0052548774701350505,-0.0326893163640368,0.02137712935800191,0.9023118356232802,-0.39840542794885514,-0.06522458530981269,-0.15116950850930727,-0.010000000000000064,0.010000000000000009,9.7985633,0.00039269908169872405,0.001832595714594046,-0.000916297857297023,nan,nan,nan
11.17212900200002,1526838.6487816027,-4462986.294609942,4278788.932859326,0.004159532676090139,-0.03415864422541856,0.021902524926713362,0.9023191274061997,-0.3983930669571245,-0.06515088011159859,-0.15119034325922112,-0.010000000000000064,0.0,9.818563300000001,-0.000698131700797732,-0.0014398966328953218,0.001265363707695889,nan,nan,nan
11.248409167999853,1526838.6491996702,-4462986.298043167,4278788.935060711,0.002816598852130276,-0.03674322053478982,0.02189260615653039,0.9022862220480049,-0.39845551105684746,-0.06519083269315953,-0.15120494403386361,-0.010000000000000064,-0.010000000000000009,9.818563300000001,0.00148352986419518,0.0007417649320975901,0.00017453292519943288,nan,nan,nan
11.323326167999767,1526838.6494102965,-4462986.300790839,4278788.936697848,0.0029737045572040717,-0.03728126408259877,0.022913623541657,0.9022779885451305,-0.3984651688101506,-0.06521439080280896,-0.15121846587310817,0.009999999999999953,0.010000000000000009,9.818563300000001,0.00039269908169872405,0.0007417649320975901,0.00017453292519943288,nan,nan,nan
11.40297700200017,1526838.6419463495,-4462986.269336087,4278788.916766878,0.0008271776541834957,-0.02218405183619801,0.022512828911645973,0.9023574970602296,-0.39825336091253344,-0.065218450965652,-0.15130023870257603,-0.010000000000000064,0.01999999999999999,9.818563300000001,0.00039269908169872405,-0.0014398966328953218,0.001265363707695889,42.403123,-71.113596,21.3
11.679286502000195,1526838.6421778828,-4462986.275545572,4278788.92306839,-0.0004578951358554812,-0.025812162182484305,0.021169769315014915,0.902407376529446,-0.3981979312950648,-0.0650080323428358,-0.1512391833660595,-5.551115123125783e-17,-0.010000000000000009,9.808563300000001,-0.000698131700797732,-0.0014398966328953218,0.00017453292519943288,nan,nan,nan
11.755137667999861,1526838.642143081,-4462986.277507397,4278788.924677376,-0.0016467422511594627,-0.027677962369934056,0.023569592492468268,0.9023762387035538,-0.39824784807391916,-0.06502174461685888,-0.1512876353554577,-0.010000000000000064,0.010000000000000009,9.8385633,0.00148352986419518,0.0007417649320975901,0.001265363707695889,nan,nan,nan
11.829459626999778,1526838.6420203308,-4462986.279570545,4278788.92643428,-0.003467373346086629,-0.02746384838417884,0.02385168545847067,0.9023860049947484,-0.3982418787051882,-0.06491283006347907,-0.15129186721326493,-0.010000000000000064,0.010000000000000009,9.7985633,-0.000698131700797732,-0.002530727415391778,0.001265363707695889,nan,nan,nan
11.904034667999895,1526838.6417623416,-4462986.281613987,4278788.92820896,-0.00332340241155696,-0.028822686960263383,0.02512156447380099,0.9024080224153748,-0.39823064675966097,-0.06483643660871913,-0.15122284915443407,0.009999999999999953,0.0,9.8285633,-0.000698131700797732,-0.002530727415391778,-0.000916297857297023,nan,nan,nan
11.975878584999919,1526838.6415227621,-4462986.283691775,4278788.930019939,-0.0036632672600442635,-0.02915216174353394,0.025406335302588796,0.9024267982140061,-0.398213815396054,-0.06479790192165352,-0.151171636083735,0.009999999999999953,0.0,9.808563300000001,-0.000698131700797732,-0.0014398966328953218,-0.000916297857297023,nan,nan,nan
12.052145917999951,1526838.6412434927,-4462986.285914193,4278788.931956793,-0.0062581764543539215,-0.03029210376587929,0.02680415936220177,0.9024171234544874,-0.398262078572969,-0.06482380195423804,-0.1510911225843882,-0.020000000000000018,0.010000000000000009,9.818563300000001,0.00148352986419518,-0.00034906585039886593,-0.002007128639793479,nan,nan,nan
12.126869501999863,1526838.6407758745,-4462986.288177654,4278788.933959631,-0.008274997757756255,-0.030704588221305146,0.027611701306614674,0.9024339395407955,-0.3982384686604174,-0.06482064126496025,-0.15105426795238527,-0.010000000000000064,0.010000000000000009,9.808563300000001,-0.000698131700797732,-0.00034906585039886593,-0.000916297857297023,nan,nan,nan
12.212721084999885,1526838.6401469016,-4462986.290511474,4278788.936058365,-0.009289015597708646,-0.03187583976267269,0.028415730532066426,0.9024318465646729,-0.3982456006189197,-0.0648610998301198,-0.15103060014157313,-5.551115123125783e-17,0.0,9.818563300000001,0.00039269908169872405,0.0007417649320975901,-0.000916297857297023,nan,nan,nan
12.28761012699988,1526838.6393596975,-4462986.293212814,4278788.938466476,-0.011361855220488245,-0.032918223012621234,0.029916996391754998,0.9024195301944271,-0.3982495680490133,-0.0649295129080634,-0.1510643306102113,-0.010000000000000064,0.010000000000000009,9.818563300000001,0.00039269908169872405,0.001832595714594046,0.00017453292519943288,nan,nan,nan
12.36224333500013,1526838.638511969,-4462986.295668902,4278788.940698637,-0.01273491325779469,-0.03481279794997824,0.031173413585323613,0.902416609528343,-0.39827150179057347,-0.06487957445944335,-0.15104540735672395,-0.010000000000000064,0.0,9.8285633,0.00039269908169872405,-0.0014398966328953218,0.00017453292519943288,nan,nan,nan
12.439790543000072,1526838.6406999985,-4462986.267930805,4278788.916121976,-0.0027960477741558933,-0.02297024022154818,0.02411511276626038,0.9024015745035413,-0.3981803200110784,-0.06524783261806617,-0.15121690376672733,-5.551115123125783e-17,0.01999999999999999,9.818563300000001,-0.001788962483294188,0.0007417649320975901,0.00017453292519943288,42.403123,-71.113596,21.3
12.514525584999774,1526838.6404811628,-4462986.269728595,4278788.9180093715,-0.0022516715464531625,-0.02420481123335553,0.024352984663460305,0.9024095308479196,-0.3981756155094331,-0.06536200774128559,-0.15113247946518912,0.009999999999999953,-0.010000000000000009,9.818563300000001,0.00039269908169872405,0.001832595714594046,-0.003097959422289935,nan,nan,nan
12.588984917999824,1526838.6403131601,-4462986.271534575,4278788.919826406,-0.0019608211889736073,-0.024412147892369708,0.025665034326021293,0.9024039755931101,-0.3981914072823498,-0.0653487945366718,-0.15112975752511892,0.009999999999999953,0.010000000000000009,9.818563300000001,0.00039269908169872405,-0.00034906585039886593,0.00017453292519943288,nan,nan,nan
12.663536127000043,1526838.640167267,-4462986.273350938,4278788.92173599,-0.0027451376010835162,-0.02384134111120343,0.025952325275952145,0.9024031546277715,-0.3981609187649201,-0.06538656708165054,-0.15119863322181035,-5.551115123125783e-17,0.010000000000000009,9.7985633,-0.000698131700797732,0.001832595714594046,0.001265363707695889,nan,nan,nan
12.737681085000077,1526838.6399635102,-4462986.275120553,4278788.923662292,-0.002061254176921592,-0.024958700568019666,0.026173812933835635,0.902359264904734,-0.39825233872671556,-0.0653695463421804,-0.15122716259671326,0.009999999999999953,-0.010000000000000009,9.818563300000001,0.002574360646691636,-0.00034906585039886593,0.001265363707695889,nan,nan,nan
12.810135251999782,1526838.6398142662,-4462986.276927672,4278788.925557392,-0.00138424371127723,-0.02614197387844317,0.026289483899117613,0.9023558775447831,-0.3982166920280264,-0.06544192974101358,-0.1513099165261761,0.009999999999999953,-0.010000000000000009,9.818563300000001,-0.000698131700797732,0.0029234264970905022,0.001265363707695889,nan,nan,nan
12.885325334999834,1526838.639711182,-4462986.278874456,4278788.927515161,-0.0003878746980555039,-0.027760337578169515,0.02588616013405037,0.9023083420139486,-0.39831721548090815,-0.06537203578924866,-0.15135900791525364,0.009999999999999953,-0.020000000000000018,9.818563300000001,0.002574360646691636,-0.0014398966328953218,0.002356194490192345,nan,nan,nan
12.96105558499994,1526838.6396816429,-4462986.280988596,4278788.92948657,-0.00047263909334648545,-0.028811062193390337,0.026490587867728784,0.9023137808871541,-0.39828328155078685,-0.06542722402308952,-0.15139203206127927,-5.551115123125783e-17,0.0,9.818563300000001,-0.000698131700797732,0.001832595714594046,0.00017453292519943288,nan,nan,nan
13.035293835000175,1526838.639646418,-4462986.283135837,4278788.9314608695,-0.0011752093515853736,-0.030024747219409377,0.027109208334918807,0.9022994156099966,-0.3982955632319596,-0.06543451796374206,-0.1514421781248311,-0.010000000000000064,0.0,9.818563300000001,0.00039269908169872405,0.0007417649320975901,0.001265363707695889,nan,nan,nan
13.110080752000158,1526838.639558961,-4462986.285370229,4278788.933478292,-0.0007906658787087874,-0.031990035455703204,0.027665157298385586,0.9022981909955867,-0.3982875615220834,-0.06556354627842753,-0.1514147113692272,-5.551115123125783e-17,-0.010000000000000009,9.8285633,0.00039269908169872405,0.0029234264970905022,-0.002007128639793479,nan,nan,nan
13.192402834999939,1526838.639501797,-4462986.287683057,4278788.935478438,-0.0011384435662332906,-0.03354838490587895,0.026679853148381446,0.9022520327798533,-0.3983851649213607,-0.06549569676249159,-0.15146235168365782,-0.010000000000000064,-0.020000000000000018,9.808563300000001,0.002574360646691636,-0.0014398966328953218,0.002356194490192345,nan,nan,nan
13.267056626999874,1526838.639405461,-4462986.290521946,4278788.937736107,-0.000780788018995662,-0.03527690960543781,0.0266094910826517,0.9022527191304822,-0.39840005551731766,-0.06549910358952972,-0.15141761644922014,-5.551115123125783e-17,-0.010000000000000009,9.818563300000001,0.00039269908169872405,-0.00034906585039886593,-0.000916297857297023,nan,nan,nan
13.341178127000148,1526838.6393475186,-4462986.293139854,4278788.939710804,-0.0015283452978664038,-0.03606649601125376,0.02657607651157273,0.9022559691868842,-0.3984192416140503,-0.06546557195203226,-0.15136225891569036,-0.010000000000000064,0.0,9.808563300000001,0.00039269908169872405,-0.0014398966328953218,-0.000916297857297023,nan,nan,nan
13.413381418999961,1526838.6392369252,-4462986.295749682,4278788.94163389,-0.0014701316172067071,-0.03714559058870013,0.027017486990261016,0.9022446038651804,-0.39843714192376506,-0.06543703585638404,-0.1513952232630266,-5.551115123125783e-17,0.0,9.818563300000001,0.00039269908169872405,-0.00034906585039886593,0.001265363707695889,nan,nan,nan
13.491627126999902,1526838.6408480476,-4462986.267963231,4278788.916203769,0.008401065289230306,-0.02476412996908176,0.017974270944307744,0.9022062421373231,-0.39844448386876247,-0.06567832635374017,-0.15149999315882154,0.009999999999999953,0.010000000000000009,9.7985633,0.00039269908169872405,-0.002530727415391778,0.00017453292519943288,42.403123,-71.113596,21.3
13.564200376999906,1526838.6414883789,-4462986.269850759,4278788.917573772,0.009735777896631562,-0.026128134927408207,0.018882652551583765,0.9022041328115464,-0.3984515920887339,-0.06571890430796161,-0.15147626108742543,0.009999999999999953,0.0,9.8285633,0.00039269908169872405,0.0007417649320975901,-0.000916297857297023,nan,nan,nan
13.638905543999954,1526838.6422164934,-4462986.271804817,4278788.918985959,0.009677457286096716,-0.025667038675955132,0.01879689152719914,0.9021823095804007,-0.3985042262736315,-0.0657118438336205,-0.15147084227322605,-5.551115123125783e-17,0.010000000000000009,9.7985633,0.00148352986419518,-0.00034906585039886593,0.00017453292519943288,nan,nan,nan
13.712553835000108,1526838.642931955,-4462986.273702401,4278788.920375627,0.009271760826719141,-0.026544087504673994,0.019647366119205853,0.9021438486123331,-0.39860749647588545,-0.06562214460133375,-0.1514670751642835,-0.010000000000000064,0.010000000000000009,9.818563300000001,0.002574360646691636,-0.002530727415391778,0.001265363707695889,nan,nan,nan
13.785216084999774,1526838.6436025223,-4462986.275622166,4278788.921796597,0.008776393758781378,-0.027532323875756968,0.02037912559032605,0.902126120336782,-0.3986498288529452,-0.06566662556664521,-0.15144197504344573,-0.010000000000000064,0.010000000000000009,9.818563300000001,0.00148352986419518,0.0007417649320975901,-0.000916297857297023,nan,nan,nan
13.861565918999986,1526838.6442710953,-4462986.277719538,4278788.923349049,0.009579870425308126,-0.027631423378201212,0.021657314224456367,0.9021275671320143,-0.39864791178150694,-0.06576123039460718,-0.15139734537451757,0.009999999999999953,0.01999999999999999,9.818563300000001,0.00039269908169872405,0.001832595714594046,-0.002007128639793479,nan,nan,nan
13.935677043999931,1526838.644985767,-4462986.2797808815,4278788.924964715,0.010103491228858688,-0.028949383622271372,0.022842419369879782,0.9021421254478555,-0.3985956403128353,-0.06570326080339225,-0.15147337420343737,-5.551115123125783e-17,0.010000000000000009,9.8285633,-0.001788962483294188,-0.00034906585039886593,0.002356194490192345,nan,nan,nan
14.012006043999918,1526838.6457549704,-4462986.281984868,4278788.926703763,0.009888548919031306,-0.030533992257621188,0.02519938657510294,0.9021364539546672,-0.3986117575393557,-0.06568978311125233,-0.15147058509502012,-0.010000000000000064,0.01999999999999999,9.8385633,0.00039269908169872405,-0.00034906585039886593,0.00017453292519943288,nan,nan,nan
14.086926252000012,1526838.6464940223,-4462986.284266923,4278788.928587119,0.010524105349774895,-0.0300091367435231,0.024934146914623076,0.902123486182545,-0.3986678487976419,-0.06566220089377184,-0.1514121459574644,0.009999999999999953,0.010000000000000009,9.7985633,0.00148352986419518,-0.0014398966328953218,-0.000916297857297023,nan,nan,nan
14.173345709999921,1526838.6472951514,-4462986.286551315,4278788.930485187,0.010923586679910405,-0.031351424751156126,0.02506374003346583,0.9021088001632103,-0.3986804018512956,-0.06566962626164362,-0.15146336385801376,-5.551115123125783e-17,0.0,9.818563300000001,0.00039269908169872405,0.0007417649320975901,0.001265363707695889,nan,nan,nan
14.247420709999915,1526838.6482208548,-4462986.289208146,4278788.932609177,0.012216219287720945,-0.03257139929169947,0.02519166922546938,0.9021125188520265,-0.39870230534483087,-0.06563135472296239,-0.15140013499711485,0.009999999999999953,0.0,9.818563300000001,0.00039269908169872405,-0.0014398966328953218,-0.000916297857297023,nan,nan,nan
14.322424084999966,1526838.6491325074,-4462986.291638833,4278788.934489141,0.012745074015493033,-0.034456450125767896,0.025786965038861118,0.9020933979825664,-0.39876098099878043,-0.06558758587382021,-0.1513785007362278,-5.551115123125783e-17,0.0,9.8285633,0.00148352986419518,-0.0014398966328953218,0.00017453292519943288,nan,nan,nan
14.399012376999963,1526838.6501069288,-4462986.294273192,4278788.936460678,0.012151504855626424,-0.03569544536638711,0.026383723147153523,0.9020378055265631,-0.3988900103486528,-0.06559298509754302,-0.15136749290258447,-0.010000000000000064,0.010000000000000009,9.818563300000001,0.003665191429188092,-0.00034906585039886593,0.00017453292519943288,nan,nan,nan
14.678868752000199,1526838.6421159944,-4462986.269093592,4278788.917053653,0.0030455918947531113,-0.026392302137861517,0.024829978213446815,0.9021409300067295,-0.3987554580365166,-0.06505054864781923,-0.15134151370342885,-0.020000000000000018,0.01999999999999999,9.818563300000001,-0.000698131700797732,-0.003621558197888234,0.001265363707695889,42.403123,-71.113596,21.3
14.856837459999952,1526838.6426698663,-4462986.273893301,4278788.921569238,0.0019803527366296014,-0.030253087003123385,0.02517560171490132,0.902135910623781,-0.39877247352640477,-0.06514738042980105,-0.15128493811518534,-5.551115123125783e-17,0.0,9.818563300000001,0.00039269908169872405,0.0007417649320975901,-0.000916297857297023,nan,nan,nan
14.930723001999922,1526838.6428159636,-4462986.276125172,4278788.923426527,0.003575378565084767,-0.030634245819770627,0.02583011093185508,0.9021091145639555,-0.39881220733204215,-0.06521300175947364,-0.15131171026013082,0.02999999999999997,0.010000000000000009,9.818563300000001,0.00148352986419518,0.001832595714594046,0.00017453292519943288,nan,nan,nan
15.00762454400001,1526838.6430911457,-4462986.278482962,4278788.925414562,0.0035079721602585467,-0.03278175604308424,0.02530700169718372,0.9021459400469153,-0.3987563680200253,-0.06516554118207052,-0.15125975875803746,-5.551115123125783e-17,-0.010000000000000009,9.818563300000001,-0.001788962483294188,-0.0014398966328953218,-0.000916297857297023,nan,nan,nan
15.081273043999772,1526838.6433495046,-4462986.280897307,4278788.927278399,0.0019624351016188845,-0.03532581915940085,0.025915790454289236,0.9021309063553111,-0.39878326103871875,-0.06508422402466035,-0.15131352501915987,-0.020000000000000018,0.0,9.8285633,0.00039269908169872405,-0.0014398966328953218,0.002356194490192345,nan,nan,nan
15.465208959999927,1526838.6440825972,-4462986.294093719,4278788.936959574,0.002584310282682487,-0.039558923963567236,0.023927259607848774,0.9020839377535715,-0.3989297689324918,-0.06495379601127962,-0.15126339162847857,0.009999999999999953,0.0,9.808563300000001,0.0007199483164476609,-0.0007853981633974482,0.00017453292519943294,nan,nan,nan
15.548697293999794,1526838.6443012888,-4462986.297441304,4278788.938984364,0.003319367475745314,-0.04305994002572104,0.024394688553264956,0.9020612043861136,-0.399013242951529,-0.0648024712106794,-0.1512436966372934,0.009999999999999953,-0.010000000000000009,9.8385633,0.00148352986419518,-0.003621558197888234,0.001265363707695889,nan,nan,nan
15.728386752000006,1526838.6418255793,-4462986.270118157,4278788.9177844,0.004493112131748662,-0.03214088062504209,0.020498210215996692,0.9020965828117483,-0.39883902772851576,-0.06479504196933669,-0.15149517593929057,-0.010000000000000064,0.010000000000000009,9.818563300000001,-0.000698131700797732,-0.0014398966328953218,0.002356194490192345,42.403123,-71.113596,21.3
15.80355587699978,1526838.642179493,-4462986.272649832,4278788.919399004,0.0028655504693169973,-0.03370184128531243,0.021175285159729728,0.9021458207174741,-0.39873013301873045,-0.06481746077031557,-0.15147902997080243,-0.010000000000000064,0.010000000000000009,9.818563300000001,-0.002879793265790644,0.0007417649320975901,-0.000916297857297023,nan,nan,nan
15.875447752000127,1526838.6423864302,-4462986.275083626,4278788.920928188,0.002057003878354586,-0.03478329341348222,0.021917815332744072,0.902169282859191,-0.39866837963419616,-0.06482827584827469,-0.15149720575793985,-5.551115123125783e-17,0.010000000000000009,9.818563300000001,-0.001788962483294188,0.0007417649320975901,0.00017453292519943288,nan,nan,nan
15.95037933499998,1526838.6425394744,-4462986.277671556,4278788.9225589065,-0.0007005867758203268,-0.03474749748754583,0.021243189209631762,0.9021619776388521,-0.39866304701411925,-0.06494111080544848,-0.1515064148221917,-0.020000000000000018,0.010000000000000009,9.7885633,0.00039269908169872405,0.0029234264970905022,-0.000916297857297023,nan,nan,nan
16.024350211000183,1526838.642487465,-4462986.280251107,4278788.924135938,-0.0015310031597284548,-0.035278066434139145,0.022609658592132664,0.9021503009887754,-0.3986813857020939,-0.06491182630343359,-0.15154023387608703,-5.551115123125783e-17,0.01999999999999999,9.818563300000001,0.00039269908169872405,-0.00034906585039886593,0.001265363707695889,nan,nan,nan
16.096433543999865,1526838.642376688,-4462986.282803677,4278788.925771876,-0.003040231131197945,-0.03605061897632165,0.02392346796038459,0.9021180582668378,-0.39872289897155483,-0.06496046853319765,-0.15160210047780634,-0.010000000000000064,0.01999999999999999,9.818563300000001,0.00148352986419518,0.001832595714594046,0.001265363707695889,nan,nan,nan
16.183303585999965,1526838.642145253,-4462986.285548001,4278788.92759303,-0.0034619793570416493,-0.0376041585469342,0.024124465007218553,0.9021253300589891,-0.39871054374639375,-0.06488668883672417,-0.15162291825435673,-5.551115123125783e-17,0.0,9.818563300000001,-0.000698131700797732,-0.0014398966328953218,0.001265363707695889,nan,nan,nan
16.264146960999824,1526838.6418291158,-4462986.288981897,4278788.929796002,-0.0060044492552838715,-0.039483866141204894,0.025068297026693342,0.9021292921679501,-0.39873418708028247,-0.06484545157313566,-0.1515547961398838,-0.020000000000000018,0.010000000000000009,9.818563300000001,0.00039269908169872405,-0.0014398966328953218,-0.000916297857297023,nan,nan,nan
16.338037627000176,1526838.6413865264,-4462986.291892262,4278788.931643792,-0.005889774094499255,-0.040799340667932095,0.02527434903805943,0.9021398177707113,-0.39871351643235947,-0.06482630992833022,-0.1515547132378027,0.009999999999999953,0.0,9.818563300000001,-0.000698131700797732,-0.00034906585039886593,0.00017453292519943288,nan,nan,nan
16.41480783599991,1526838.6409315667,-4462986.295043836,4278788.933596128,-0.00779923374982383,-0.04109031448731169,0.025043211399874598,0.9021676437725361,-0.39865384497648837,-0.06479986505209655,-0.15155735700172573,-0.010000000000000064,0.010000000000000009,9.7985633,-0.001788962483294188,-0.00034906585039886593,0.00017453292519943288,nan,nan,nan
16.488263793999977,1526838.6403586848,-4462986.298062069,4278788.9354356425,-0.011035761297306573,-0.0418351458320819,0.025928681237615114,0.9021958070819606,-0.3986179080978874,-0.0646503166251783,-0.15154809845195702,-0.030000000000000027,0.01999999999999999,9.808563300000001,-0.001788962483294188,-0.003621558197888234,0.001265363707695889,nan,nan,nan
16.56538387699993,1526838.6395072818,-4462986.301289628,4278788.9374360265,-0.012107452554936476,-0.04289862522782482,0.026890140024866848,0.9022040974127765,-0.3985898922968776,-0.06466824530174375,-0.15156478145235436,-5.551115123125783e-17,0.010000000000000009,9.818563300000001,-0.000698131700797732,0.0007417649320975901,0.00017453292519943288,nan,nan,nan
16.639331711000068,1526838.6386152022,-4462986.304450408,4278788.939417298,-0.01414689907303282,-0.04538689676794825,0.028824247137189018,0.9021691528772003,-0.3986840840427558,-0.06463112712172221,-0.15154088125500995,-0.020000000000000018,0.010000000000000009,9.8385633,0.002574360646691636,-0.0014398966328953218,0.00017453292519943288,nan,nan,nan
16.715912626999852,1526838.6375275715,-4462986.307939807,4278788.941633341,-0.01541538818931154,-0.04598791633141295,0.029188537924827684,0.9021493993226268,-0.39874453401091525,-0.0645860408804514,-0.15151865158578967,-5.551115123125783e-17,0.010000000000000009,9.808563300000001,0.00148352986419518,-0.0014398966328953218,0.00017453292519943288,nan,nan,nan
16.793284627000048,1526838.6415443397,-4462986.271489852,4278788.918727502,-0.0022054906937653985,-0.028165890959530863,0.027191131728462933,0.902151383736733,-0.39856412071069025,-0.06509716807548675,-0.15176258356165911,0.009999999999999953,0.01999999999999999,9.8285633,0.00148352986419518,0.0029234264970905022,0.00017453292519943288,42.403123,-71.113596,21.3
17.28636958600009,1526838.640470936,-4462986.285198081,4278788.931961319,0.001361025557873553,-0.035280552851394024,0.036408859823913564,0.9021687956079872,-0.3983067133020008,-0.06568917143571266,-0.15207945187508617,0.009999999999999953,0.010000000000000009,9.8285633,-0.000698131700797732,0.0029234264970905022,0.00017453292519943288,nan,nan,nan
17.361325877000127,1526838.6405861117,-4462986.2881836705,4278788.935042391,0.00041373578707294516,-0.03619599806926537,0.03764596886117316,0.9021514809920059,-0.398337717658015,-0.06559579477957757,-0.1521412511415464,-0.020000000000000018,0.010000000000000009,9.818563300000001,0.00039269908169872405,-0.0014398966328953218,0.002356194490192345,nan,nan,nan
17.433172835999812,1526838.64061593,-4462986.290792365,4278788.937755586,0.002252112904781346,-0.0360779179211868,0.038689871556213784,0.9020931482249354,-0.39846194490777687,-0.06558533003046775,-0.15216634130936052,0.019999999999999962,0.010000000000000009,9.818563300000001,0.003665191429188092,-0.00034906585039886593,0.001265363707695889,nan,nan,nan
17.50788658600004,1526838.640783612,-4462986.293478558,4278788.940636253,0.0020502195753884355,-0.0367690693126898,0.03856744687997332,0.9020714170097321,-0.39851434693042487,-0.0655783403751536,-0.1521609533850817,-0.010000000000000064,0.0,9.808563300000001,0.00148352986419518,-0.00034906585039886593,0.00017453292519943288,nan,nan,nan
17.58194312700016,1526838.6409357046,-4462986.296206219,4278788.943497324,0.003603961362768566,-0.038068207231506106,0.03939006037451476,0.9020248241527763,-0.3985995500609822,-0.06559790627709126,-0.15220555361793844,0.009999999999999953,0.0,9.8285633,0.002574360646691636,0.0007417649320975901,0.001265363707695889,nan,nan,nan
17.65458300199998,1526838.6411967506,-4462986.298963617,4278788.946350468,0.004314813918068329,-0.03909580528079975,0.03857957230105419,0.9020560958604964,-0.398555643232125,-0.06550179799571493,-0.15217658881976642,-5.551115123125783e-17,-0.010000000000000009,9.808563300000001,-0.001788962483294188,-0.002530727415391778,0.00017453292519943288,nan,nan,nan
17.73091350200002,1526838.6415254106,-4462986.301941549,4278788.949289079,0.004921704977684028,-0.040208705084708356,0.038874517885309656,0.9020787339883539,-0.39854421986437516,-0.0654236103660338,-0.15210593105492043,-5.551115123125783e-17,0.0,9.818563300000001,-0.000698131700797732,-0.002530727415391778,-0.000916297857297023,nan,nan,nan
17.80849583600002,1526838.6423149968,-4462986.2729128525,4278788.921131003,0.01478792228238948,-0.029861966707939492,0.027021322719395214,0.9020404743034891,-0.3985566332341254,-0.06564960371663375,-0.15220290047173896,-5.551115123125783e-17,-0.010000000000000009,9.7985633,-0.000698131700797732,-0.002530727415391778,0.00017453292519943288,42.403123,-71.113596,21.3
18.084340836000138,1526838.6464510246,-4462986.281264934,4278788.928688585,0.011223191123555102,-0.031881320321908255,0.02816008446780942,0.9020471733701174,-0.39846505488806616,-0.06565372306910816,-0.15240107037663034,-0.020000000000000018,0.010000000000000009,9.808563300000001,-0.000698131700797732,0.0007417649320975901,0.001265363707695889,nan,nan,nan
18.183382002000144,1526838.647262757,-4462986.2835707925,4278788.930725301,0.012610724021192536,-0.03202109362322096,0.028029206499148963,0.9020514889255394,-0.39844738177723094,-0.06561920420705455,-0.15243659625584008,0.009999999999999953,0.0,9.808563300000001,-0.000698131700797732,-0.00034906585039886593,0.001265363707695889,nan,nan,nan
18.257449751999957,1526838.648530539,-4462986.286789939,4278788.9335431345,0.014966145638617754,-0.03353503142441376,0.0278187631508947,0.9020194299610061,-0.39858906695028556,-0.06549160852735816,-0.1523107135094833,0.009999999999999953,-0.010000000000000009,9.818563300000001,0.002574360646691636,-0.003621558197888234,-0.000916297857297023,nan,nan,nan
18.333619294000073,1526838.6496698025,-4462986.289342716,4278788.935660774,0.014402316452698181,-0.03340842134192672,0.028685506625925717,0.9020200763182421,-0.39860247011816574,-0.06549469554945943,-0.15227047693548298,-0.010000000000000064,0.01999999999999999,9.808563300000001,0.00039269908169872405,-0.00034906585039886593,-0.000916297857297023,nan,nan,nan
18.40803975200015,1526838.6507421215,-4462986.291830128,4278788.937796542,0.013656272669058748,-0.0327851728407738,0.029015550384870404,0.9019724346030074,-0.39870299734265724,-0.0654248908862436,-0.1523195041206936,-0.010000000000000064,0.01999999999999999,9.7985633,0.002574360646691636,-0.0014398966328953218,0.002356194490192345,nan,nan,nan
18.483971418999772,1526838.6517828598,-4462986.294328671,4278788.940007804,0.01517308247128196,-0.03433505117170914,0.0296658038268524,0.9019556096766476,-0.3987692882238829,-0.06534276168787394,-0.1522808490716824,0.009999999999999953,0.0,9.8285633,0.00148352986419518,-0.002530727415391778,0.00017453292519943288,nan,nan,nan
18.558867919000022,1526838.6529162796,-4462986.296893477,4278788.942223821,0.016017839359063868,-0.03443461731814705,0.02978754150536166,0.9019464904225198,-0.39879397187600046,-0.06527655579389224,-0.15229861532626077,0.009999999999999953,0.010000000000000009,9.808563300000001,0.00039269908169872405,-0.0014398966328953218,0.001265363707695889,nan,nan,nan
18.635141293999823,1526838.6541356083,-4462986.299514749,4278788.944491343,0.01623862229906703,-0.03759115007469986,0.029226554328058197,0.9019152144184795,-0.3988439247127989,-0.065290306029607,-0.15234712408006246,-0.010000000000000064,-0.020000000000000018,9.8285633,0.00148352986419518,0.0007417649320975901,0.001265363707695889,nan,nan,nan
18.709730751999814,1526838.655347969,-4462986.30232127,4278788.94667337,0.015998773028753105,-0.0392558883111475,0.029216383815013337,0.9019294252968649,-0.39881414554970585,-0.06532386626912028,-0.1523265641492829,-0.010000000000000064,0.0,9.818563300000001,-0.000698131700797732,0.0007417649320975901,-0.000916297857297023,nan,nan,nan
18.78544825300014,1526838.6565636683,-4462986.305304209,4278788.948893436,0.01508938453562475,-0.04125865558533896,0.031379104144586764,0.9019643121679943,-0.3987144878309429,-0.06531233971820044,-0.15238581169619006,-0.020000000000000018,0.01999999999999999,9.8385633,-0.002879793265790644,0.0007417649320975901,0.001265363707695889,nan,nan,nan
18.863605628000187,1526838.644222161,-4462986.274731972,4278788.922594353,0.009238987556046975,-0.030123730088096403,0.02582438160236502,0.9020299972993115,-0.39859648496405514,-0.06513953330137748,-0.15237968337192806,-5.551115123125783e-17,0.01999999999999999,9.808563300000001,-0.001788962483294188,-0.002530727415391778,0.001265363707695889,42.403123,-71.113596,21.3
19.03923508600019,1526838.645877375,-4462986.280128799,4278788.9272209285,0.01111136089866206,-0.031257242464239526,0.02790100827591315,0.9021079236175523,-0.3983104054213206,-0.06541574367708941,-0.15254801249262942,0.009999999999999953,0.010000000000000009,9.818563300000001,-0.002879793265790644,0.004014257279586958,0.00017453292519943288,nan,nan,nan
19.11150633599982,1526838.646679571,-4462986.282385447,4278788.929235269,0.010537244497294053,-0.030734975907945133,0.027010956888622116,0.9021044857596987,-0.3982747305152118,-0.06548785610535983,-0.15263052468210606,-0.010000000000000064,0.0,9.7885633,-0.000698131700797732,0.0029234264970905022,0.001265363707695889,nan,nan,nan
19.197320252999816,1526838.6474812475,-4462986.284723773,4278788.931290271,0.01278407482988926,-0.033332333278603604,0.029696964880690756,0.902100849886571,-0.3982371306680143,-0.06556384754994538,-0.15271747392628998,0.009999999999999953,0.0,9.8585633,-0.000698131700797732,0.0029234264970905022,0.001265363707695889,nan,nan,nan
19.27238762800016,1526838.6485661122,-4462986.287552375,4278788.933810374,0.012671390304652653,-0.03070350126889329,0.031797504521661434,0.9021008075022511,-0.39818507977905065,-0.06570879302950285,-0.15279113331764366,-5.551115123125783e-17,0.04000000000000001,9.7985633,-0.000698131700797732,0.004014257279586958,0.00017453292519943288,nan,nan,nan
19.346890293999877,1526838.6495097238,-4462986.2898388,4278788.936178266,0.014712480076937885,-0.031545763844948754,0.03403436380671595,0.9020782141550421,-0.39825257822889587,-0.06561238678841805,-0.15279003481104586,0.009999999999999953,0.010000000000000009,9.8385633,0.00148352986419518,-0.002530727415391778,0.001265363707695889,nan,nan,nan
19.421180335999907,1526838.6506040061,-4462986.292185105,4278788.938709668,0.015742458234780946,-0.03216279436321498,0.03465389453312819,0.9020850659471444,-0.39826301495109745,-0.06563155443670578,-0.15271412618407704,-5.551115123125783e-17,0.0,9.818563300000001,0.00039269908169872405,-0.00034906585039886593,-0.002007128639793479,nan,nan,nan
19.49336941899992,1526838.6517405822,-4462986.294507199,4278788.941211614,0.015883532303740996,-0.03255927278335177,0.03577082610159401,0.9020856998130719,-0.39827572887379115,-0.06563447727359889,-0.15267596383379692,-0.010000000000000064,0.010000000000000009,9.818563300000001,0.00039269908169872405,-0.00034906585039886593,-0.000916297857297023,nan,nan,nan
19.568096793999757,1526838.6529238538,-4462986.296932759,4278788.943876424,0.015656025315371955,-0.03194774097613204,0.03590356016751425,0.9020819372962564,-0.39831278692121924,-0.06549516733088281,-0.15266134347610943,-0.010000000000000064,0.010000000000000009,9.7985633,0.00039269908169872405,-0.003621558197888234,0.001265363707695889,nan,nan,nan
19.64220762800005,1526838.6540875218,-4462986.299307344,4278788.946545034,0.01611348705248332,-0.031645709092462754,0.035472999851995334,0.9020936537810225,-0.39825451425235137,-0.0654739273191851,-0.15275322282615597,-5.551115123125783e-17,0.0,9.7985633,-0.001788962483294188,0.0007417649320975901,0.002356194490192345,nan,nan,nan
19.71443612799976,1526838.6552512385,-4462986.301592798,4278788.949106895,0.015218347143771724,-0.03179899059248123,0.0361394453053562,0.9021065358503992,-0.3982402994671453,-0.06541961368756753,-0.15273747594492773,-0.020000000000000018,0.010000000000000009,9.808563300000001,-0.000698131700797732,-0.0014398966328953218,0.00017453292519943288,nan,nan,nan
19.791204668999853,1526838.6564102843,-4462986.304014644,4278788.951859315,0.013652737008032448,-0.03274450487721245,0.037380407608289444,0.9020963100590565,-0.3982808994782175,-0.06526064838733668,-0.15276001053112112,-0.030000000000000027,0.010000000000000009,9.818563300000001,0.00039269908169872405,-0.003621558197888234,0.002356194490192345,nan,nan,nan
19.87336504399991,1526838.6444406577,-4462986.275139287,4278788.923376247,0.0075021913093950236,-0.02606626451844042,0.029183537022737863,0.9020907171868775,-0.398330129706626,-0.06509469000107442,-0.1527354825296953,-0.020000000000000018,0.0,9.8285633,0.00039269908169872405,-0.002530727415391778,0.001265363707695889,42.403123,-71.113596,21.3
19.945726085999922,1526838.645012497,-4462986.277126135,4278788.925600703,0.007492420157034685,-0.02591698320664039,0.029876301898741423,0.9020796155245285,-0.39833357625670374,-0.06515622378933257,-0.152765821897195,-5.551115123125783e-17,0.010000000000000009,9.808563300000001,0.00039269908169872405,0.001832595714594046,0.00017453292519943288,nan,nan,nan
20.02049858600003,1526838.6455712277,-4462986.279058837,4278788.927828662,0.0065316237413243165,-0.025001282617819767,0.030583267715111342,0.9020433726997356,-0.3984440393831443,-0.06502919734333815,-0.15274588471758516,-0.010000000000000064,0.01999999999999999,9.7985633,0.002574360646691636,-0.003621558197888234,0.001265363707695889,nan,nan,nan
20.095072294000147,1526838.6460571347,-4462986.280918757,4278788.930103843,0.006115526693497098,-0.02627526844471341,0.032139078513024125,0.9020154526976389,-0.39849903528324343,-0.06500607935296408,-0.15277713237556595,-0.010000000000000064,0.010000000000000009,9.8285633,0.00148352986419518,-0.00034906585039886593,0.001265363707695889,nan,nan,nan
20.177034210999864,1526838.6464981125,-4462986.282813411,4278788.932421324,0.006379931110469023,-0.027285131240509977,0.03257378789447331,0.9019892801372342,-0.3985377658191912,-0.06507029356122496,-0.1528032891856873,-5.551115123125783e-17,0.0,9.818563300000001,0.00148352986419518,0.001832595714594046,0.00017453292519943288,nan,nan,nan
20.25156387800007,1526838.6470375096,-4462986.285120258,4278788.935175304,0.006213798522279457,-0.029358699371638333,0.03358436141461853,0.9019564879027566,-0.3986173559181133,-0.06494245504791211,-0.152843631140045,-0.010000000000000064,0.0,9.8285633,0.00148352986419518,-0.002530727415391778,0.002356194490192345,nan,nan,nan
20.325584918999994,1526838.647499481,-4462986.287302962,4278788.937672169,0.006462090418134692,-0.030529296137456988,0.033906940429468804,0.9019302623368678,-0.39869353082633996,-0.0647934634184962,-0.15286293865145587,-5.551115123125783e-17,0.0,9.818563300000001,0.00148352986419518,-0.003621558197888234,0.002356194490192345,nan,nan,nan
20.398287253000035,1526838.6479657246,-4462986.289505668,4278788.940118575,0.00601757839576691,-0.032472989452639836,0.03362452256397487,0.9019345424615121,-0.3986758678895153,-0.06475900724614339,-0.1528983486324368,-0.010000000000000064,-0.010000000000000009,9.818563300000001,-0.000698131700797732,-0.00034906585039886593,0.001265363707695889,nan,nan,nan
20.472637878000114,1526838.6484147194,-4462986.291928603,4278788.942627431,0.005910878068620945,-0.033321884372134306,0.03552020434023591,0.9019280088291743,-0.3987067479894477,-0.06465618703547175,-0.1528998823802737,-5.551115123125783e-17,0.01999999999999999,9.8285633,0.00039269908169872405,-0.002530727415391778,0.001265363707695889,nan,nan,nan
20.546976960999928,1526838.648855545,-4462986.294413706,4278788.945276482,0.00513791052344933,-0.03494831856129561,0.03684336050726485,0.9019224324226177,-0.398722542069295,-0.06464300704808204,-0.15289716326733177,-0.010000000000000064,0.010000000000000009,9.8285633,0.00039269908169872405,-0.00034906585039886593,0.00017453292519943288,nan,nan,nan
20.619413085999895,1526838.6492261272,-4462986.296934424,4278788.947933883,0.005046072901603216,-0.03625903388901176,0.037092484727429445,0.901917038962026,-0.39873781670593017,-0.06463026023347478,-0.1528945335107189,-5.551115123125783e-17,0.0,9.818563300000001,0.00039269908169872405,-0.00034906585039886593,0.00017453292519943288,nan,nan,nan
20.695506628000203,1526838.6496096824,-4462986.299690496,4278788.950753306,0.0033374578349065435,-0.03772441674969508,0.03896669460871473,0.9019050151732954,-0.39875659245463085,-0.06460029626187322,-0.15292915307048305,-0.020000000000000018,0.01999999999999999,9.8285633,0.00039269908169872405,-0.00034906585039886593,0.001265363707695889,nan,nan,nan
20.774527544000193,1526838.6498733934,-4462986.30267131,4278788.953832279,0.0015327096376867525,-0.039219532281439165,0.039781408715182334,0.9018869434321909,-0.39876292699756094,-0.06464688480856097,-0.1529995103265834,-0.020000000000000018,0.010000000000000009,9.818563300000001,0.00039269908169872405,0.001832595714594046,0.001265363707695889,nan,nan,nan
20.850538377999783,1526838.6499898129,-4462986.305650295,4278788.956853942,0.0016890833070770331,-0.041153585233438164,0.040506633983963716,0.9018822420799328,-0.3987636575111963,-0.06472470920772916,-0.15299241629534965,-5.551115123125783e-17,0.0,9.8285633,0.00039269908169872405,0.001832595714594046,-0.000916297857297023,nan,nan,nan
20.92821696100009,1526838.6439544847,-4462986.275428669,4278788.923855474,0.004123569582765727,-0.03225331133807906,0.027417467513029037,0.9018110940663218,-0.39885820200291966,-0.06494040498087744,-0.15307393531091143,-5.551115123125783e-17,0.010000000000000009,9.808563300000001,0.00039269908169872405,0.001832595714594046,0.00017453292519943288,42.403123,-71.113596,21.3
21.00100341899997,1526838.6442683854,-4462986.277883903,4278788.925942588,0.003479180110534672,-0.03523220661255465,0.028478672275343564,0.9018107913036071,-0.39888703538255316,-0.06485206992449638,-0.15303803212056633,-0.020000000000000018,0.0,9.8385633,0.00039269908169872405,-0.002530727415391778,0.00017453292519943288,nan,nan,nan
21.075977503000104,1526838.644527917,-4462986.280512073,4278788.928066974,0.003423315713339323,-0.035684146186536245,0.028553649188209018,0.9018689823023917,-0.3987937081211163,-0.06481597634453357,-0.15295361025850338,-5.551115123125783e-17,0.010000000000000009,9.808563300000001,-0.002879793265790644,-0.0014398966328953218,-0.002007128639793479,nan,nan,nan
21.17889441899979,1526838.6447818014,-4462986.283158527,4278788.930184606,0.003599659209633047,-0.037050434447052014,0.02869453524928689,0.9018790132020925,-0.39871432337468987,-0.06492028652976733,-0.15305714891870595,-5.551115123125783e-17,0.0,9.818563300000001,-0.001788962483294188,0.004014257279586958,0.001265363707695889,nan,nan,nan
21.25222058600002,1526838.6451509509,-4462986.286958095,4278788.933127267,0.0019404759948465165,-0.03884468172884435,0.03118607084822389,0.9019159478997676,-0.39863515520999127,-0.06488504520577677,-0.15306066581640498,-0.020000000000000018,0.01999999999999999,9.8285633,-0.001788962483294188,-0.00034906585039886593,0.00017453292519943288,nan,nan,nan
21.326919336000174,1526838.6452958963,-4462986.289859632,4278788.935456738,0.0019190679835141364,-0.03682512026000927,0.03270528200502526,0.9019245232793507,-0.3986670378118738,-0.06477785460413966,-0.1529724726192727,0.009999999999999953,0.04000000000000001,9.7985633,0.00039269908169872405,-0.003621558197888234,-0.000916297857297023,nan,nan,nan
21.401033378000193,1526838.6454383985,-4462986.292594115,4278788.937885298,0.0027242322201781275,-0.03777475730282841,0.031955642665061124,0.9019403618885433,-0.3986586261441043,-0.06468548100322741,-0.1529400944860015,0.009999999999999953,-0.010000000000000009,9.808563300000001,-0.000698131700797732,-0.002530727415391778,0.00017453292519943288,nan,nan,nan
21.477435502999924,1526838.6456463034,-4462986.295476968,4278788.940324054,0.0017721362071840916,-0.03869053451232239,0.029612921967312578,0.9019678423465831,-0.39859970292205715,-0.06465926270042986,-0.15294269680792508,-0.010000000000000064,-0.020000000000000018,9.7885633,-0.001788962483294188,-0.00034906585039886593,0.00017453292519943288,nan,nan,nan
21.551797336000163,1526838.645778195,-4462986.298356516,4278788.942527999,0.0011764707189199173,-0.040663705750047394,0.030507653201067186,0.9019774950075301,-0.39859389127108674,-0.06455049564132763,-0.15294686139480088,-0.010000000000000064,0.0,9.8285633,-0.000698131700797732,-0.002530727415391778,0.001265363707695889,nan,nan,nan
21.6242123359998,1526838.6458630792,-4462986.301290468,4278788.944729176,0.0002898085376532942,-0.042093218588155276,0.030915176092301877,0.9019852452603724,-0.3985676575589811,-0.06456722201940214,-0.15296245970164485,-0.010000000000000064,0.0,9.818563300000001,-0.000698131700797732,0.0007417649320975901,0.00017453292519943288,nan,nan,nan
21.700158669999837,1526838.645885145,-4462986.3044954315,4278788.947083048,-0.0006192654591375604,-0.04356567526353837,0.0313732835462075,0.9020168411080167,-0.3985600143015538,-0.06446814571497093,-0.1528377967071013,-0.010000000000000064,0.0,9.818563300000001,-0.000698131700797732,-0.003621558197888234,-0.002007128639793479,nan,nan,nan
21.774876545000097,1526838.6458388567,-4462986.307751846,4278788.949428114,-0.0011759812397323013,-0.04433379261009639,0.032406973396892136,0.9019961584004642,-0.3985748667610854,-0.06445921142827694,-0.15292487186844456,-5.551115123125783e-17,0.010000000000000009,9.818563300000001,0.00039269908169872405,0.0007417649320975901,0.002356194490192345,nan,nan,nan
21.850963085999865,1526838.6457493722,-4462986.311125359,4278788.951894074,-0.003858696758081639,-0.04586421973561526,0.03343049613689142,0.9019814448308929,-0.3985873090620648,-0.0644666576390799,-0.15297607932297946,-0.030000000000000027,0.010000000000000009,9.818563300000001,0.00039269908169872405,0.0007417649320975901,0.001265363707695889,nan,nan,nan
21.929052169999977,1526838.6434830104,-4462986.275641985,4278788.923259244,0.002385986352649156,-0.030223887489202243,0.02678643838632492,0.9019715054752644,-0.39849726989859907,-0.06468977488627563,-0.15317494173643142,-0.010000000000000064,0.01999999999999999,9.818563300000001,0.00039269908169872405,-0.0014398966328953218,0.002356194490192345,42.403123,-71.113596,21.3
22.10539441999981,1526838.643910348,-4462986.281055179,4278788.92805678,0.0013780897600584492,-0.029329896002767034,0.03198442662808191,0.901899150434256,-0.3987562859834259,-0.0644237260345133,-0.15303898495236268,-5.551115123125783e-17,0.03,9.818563300000001,0.002574360646691636,-0.003621558197888234,0.00017453292519943288,nan,nan,nan
22.187213086000156,1526838.64400983,-4462986.283172455,4278788.930365682,0.0020976782915386634,-0.031386874287582966,0.03117301539204912,0.9018755106057722,-0.39880105714063724,-0.06445250587165016,-0.15304951890385113,0.009999999999999953,-0.020000000000000018,9.818563300000001,0.00148352986419518,0.0007417649320975901,0.00017453292519943288,nan,nan,nan
22.261694127999817,1526838.6441872166,-4462986.285826635,4278788.933001777,0.0010215494743324623,-0.033319047659510936,0.031397029609468254,0.9018394482008486,-0.39889918265361,-0.06447007445184476,-0.15299889478029513,-0.010000000000000064,0.0,9.818563300000001,0.002574360646691636,-0.00034906585039886593,-0.000916297857297023,nan,nan,nan
22.336129252999854,1526838.6442632924,-4462986.288307933,4278788.935339942,0.0009671673997209036,-0.0354070753323788,0.03198238051679984,0.9018505485723126,-0.39893718463997274,-0.06432659349974347,-0.15289473724369165,-5.551115123125783e-17,0.0,9.8285633,0.00039269908169872405,-0.00471238898038469,-0.000916297857297023,nan,nan,nan
22.407927752999967,1526838.6443330087,-4462986.290860177,4278788.937645324,-0.0003232119663056192,-0.036843993517453266,0.03359360839946122,0.9018416673242338,-0.3989609850955658,-0.0642627126573727,-0.15291188236394565,-0.010000000000000064,0.01999999999999999,9.8285633,0.00039269908169872405,-0.0014398966328953218,0.001265363707695889,nan,nan,nan
22.482951085999957,1526838.6443088602,-4462986.293612939,4278788.940155236,-0.00016107778252278868,-0.03830945575693179,0.03364909130896369,0.9018145734934373,-0.3990010896540131,-0.06432923898795356,-0.15293905667859456,0.009999999999999953,0.0,9.818563300000001,0.00148352986419518,0.001832595714594046,0.00017453292519943288,nan,nan,nan
22.557368961000066,1526838.6442968696,-4462986.2964647,4278788.942660078,-0.000760153069303781,-0.03956011231531842,0.034190899458508596,0.9017990065480358,-0.3990508520625944,-0.06433849181372651,-0.1528971166666517,-5.551115123125783e-17,0.010000000000000009,9.818563300000001,0.00148352986419518,-0.00034906585039886593,-0.000916297857297023,nan,nan,nan
22.629122502999962,1526838.6442421898,-4462986.299310363,4278788.94511952,-0.0013513322057848547,-0.04077813615567333,0.033640584201936254,0.9017804849593601,-0.3991074590353999,-0.06429639591452245,-0.1528763131355489,-5.551115123125783e-17,0.0,9.808563300000001,0.00148352986419518,-0.0014398966328953218,0.00017453292519943288,nan,nan,nan
22.70554562799998,1526838.6441392598,-4462986.302416405,4278788.947681899,-0.0013309221335739523,-0.04417821691897866,0.03289741412245593,0.9017389423628103,-0.3991921580786191,-0.06433309778852965,-0.15288477308291393,-5.551115123125783e-17,-0.020000000000000018,9.8285633,0.002574360646691636,0.0007417649320975901,0.00017453292519943288,nan,nan,nan
22.780057378000038,1526838.6440400188,-4462986.305710585,4278788.950134918,-0.0001780821542485926,-0.04610203482804803,0.03212232554734277,0.9017484035116017,-0.3992089267498974,-0.0643157142323101,-0.15279247045259742,0.019999999999999962,-0.010000000000000009,9.818563300000001,0.00039269908169872405,-0.0014398966328953218,-0.002007128639793479,nan,nan,nan
22.856210461000046,1526838.6440264597,-4462986.309220774,4278788.952580699,-0.00031691352030161976,-0.04685723403358827,0.03192344542796247,0.9017831968851395,-0.3991321142734234,-0.0643976155183137,-0.15275329405138047,0.009999999999999953,0.010000000000000009,9.808563300000001,-0.001788962483294188,0.001832595714594046,-0.002007128639793479,nan,nan,nan
22.934493086000202,1526838.6432145727,-4462986.275073414,4278788.922867758,0.007701617802214577,-0.032628366092652905,0.021062348800677415,0.9017486718706653,-0.3991150424326289,-0.06473704520316959,-0.15285820625207547,-5.551115123125783e-17,0.0,9.7985633,0.00148352986419518,-0.00034906585039886593,-0.000916297857297023,42.403123,-71.113596,21.3
23.00941112800001,1526838.6438207368,-4462986.277641465,4278788.924525493,0.006687557299713442,-0.033738868608174155,0.021991461934214133,0.9017846061942834,-0.3990356038463137,-0.06482169543584546,-0.1528177321242502,-0.010000000000000064,0.01999999999999999,9.818563300000001,-0.001788962483294188,0.001832595714594046,-0.002007128639793479,nan,nan,nan
23.081560420000187,1526838.6443016848,-4462986.280067857,4278788.926107049,0.007838536412914248,-0.033811277782664906,0.019877622099415286,0.9017706887224062,-0.3990473805534364,-0.06482870361386636,-0.15286612698387814,0.019999999999999962,-0.010000000000000009,9.7885633,0.00039269908169872405,0.0007417649320975901,0.001265363707695889,nan,nan,nan
23.170769460999963,1526838.6448992528,-4462986.282645447,4278788.927622412,0.007506532331949933,-0.036337915148610955,0.0213031810777286,0.9017344913785869,-0.3991448681479081,-0.06479044573135467,-0.1528413556210174,-0.010000000000000064,0.010000000000000009,9.8385633,0.002574360646691636,-0.0014398966328953218,0.00017453292519943288,nan,nan,nan
23.242873294999754,1526838.6455373315,-4462986.285734284,4278788.929433249,0.008664050197000988,-0.038622844711392545,0.020378124924502687,0.901709623581872,-0.39920467268772014,-0.06478250654063922,-0.15283524281784167,0.009999999999999953,-0.010000000000000009,9.818563300000001,0.00148352986419518,-0.00034906585039886593,0.00017453292519943288,nan,nan,nan
23.316869920000045,1526838.6461791808,-4462986.288595538,4278788.9309429,0.00707221297538092,-0.03999776521861975,0.021136404944446234,0.9017211465183491,-0.399168955467716,-0.06485223417990726,-0.15283097588862207,-0.020000000000000018,0.01999999999999999,9.818563300000001,-0.000698131700797732,0.001832595714594046,-0.000916297857297023,nan,nan,nan
23.391454919999887,1526838.646708424,-4462986.291588737,4278788.932524625,0.00746399206223573,-0.042265503634278945,0.02027808317240975,0.9017454826427255,-0.39910495394315937,-0.06486333509308384,-0.15284982364666527,-5.551115123125783e-17,-0.010000000000000009,9.818563300000001,-0.001788962483294188,0.0007417649320975901,0.00017453292519943288,nan,nan,nan
23.463336502999937,1526838.6472451307,-4462986.294627885,4278788.933982744,0.007689747429760207,-0.04611806028234888,0.020971724041264288,0.9017386737370213,-0.3990779116901239,-0.06488405644409474,-0.15295177169341564,-0.010000000000000064,-0.010000000000000009,9.8485633,-0.000698131700797732,0.001832595714594046,0.002356194490192345,nan,nan,nan
23.53774475299997,1526838.6478178634,-4462986.29806276,4278788.935544719,0.008198517617193434,-0.046063277663602076,0.021372802845555365,0.9017378257876251,-0.3990472618325892,-0.06492173059739072,-0.15302073657092188,0.009999999999999953,0.01999999999999999,9.808563300000001,-0.000698131700797732,0.001832595714594046,0.001265363707695889,nan,nan,nan
23.612131836000117,1526838.6484272345,-4462986.301486505,4278788.937133295,0.008406438099203616,-0.04936730723089411,0.0205958998212809,0.9017666872942725,-0.39893735405883307,-0.0649834756352752,-0.15311099788701907,-0.010000000000000064,-0.020000000000000018,9.8285633,-0.002879793265790644,0.0029234264970905022,0.001265363707695889,nan,nan,nan
23.68428129499989,1526838.6490338363,-4462986.305048811,4278788.93861948,0.008578918100099236,-0.049855529157940504,0.02160688495569079,0.9017552651069581,-0.3989551961311053,-0.06495502525392821,-0.15314384931455943,-5.551115123125783e-17,0.01999999999999999,9.818563300000001,0.00039269908169872405,-0.00034906585039886593,0.001265363707695889,nan,nan,nan
23.760401960999843,1526838.6496873333,-4462986.308846544,4278788.940265379,0.00853822656070442,-0.05209203165440818,0.020964806160057962,0.9017512924962294,-0.3989931137438604,-0.06481259536079347,-0.1531288010326746,-0.010000000000000064,-0.010000000000000009,9.818563300000001,0.00039269908169872405,-0.003621558197888234,0.001265363707695889,nan,nan,nan
23.835180128000047,1526838.6503258517,-4462986.312742168,4278788.941833201,0.006741373930550781,-0.05214354763434098,0.020965019482703177,0.9017492991549426,-0.39900006342401406,-0.06485243702393872,-0.1531055610681937,-0.020000000000000018,0.01999999999999999,9.7985633,0.00039269908169872405,0.0007417649320975901,-0.000916297857297023,nan,nan,nan
23.9115057529998,1526838.6508379495,-4462986.316703171,4278788.9434257755,0.0055023261296951,-0.05379177765765791,0.02248358060918048,0.9017628332749847,-0.3989851343583827,-0.06479531063858261,-0.15308893938130502,-0.020000000000000018,0.01999999999999999,9.8285633,-0.000698131700797732,-0.0014398966328953218,0.00017453292519943288,nan,nan,nan
23.989346920000116,1526838.6435895145,-4462986.275017381,4278788.921654936,0.005638009675931095,-0.03093299693507421,0.02384664730380808,0.9019047240697076,-0.39858295132123833,-0.06497160311598864,-0.15322594741779957,-0.010000000000000064,0.01999999999999999,9.808563300000001,0.00039269908169872405,0.0007417649320975901,0.00017453292519943288,42.403123,-71.113596,21.3
24.182777545000135,1526838.6445982656,-4462986.280551904,4278788.925921571,0.00726120925515273,-0.03471641567202031,0.025911612305529345,0.9018936138352955,-0.3985846077844145,-0.06515491899142493,-0.15320919309370332,-5.551115123125783e-17,0.0,9.8285633,0.00039269908169872405,0.001832595714594046,-0.000916297857297023,nan,nan,nan
24.263112295000155,1526838.645312276,-4462986.283965644,4278788.928469516,0.00685318716673345,-0.03512395205398886,0.027783974067391574,0.901855433832816,-0.39867722862903743,-0.06500627055005333,-0.15325609020464628,-0.010000000000000064,0.01999999999999999,9.818563300000001,0.00148352986419518,-0.002530727415391778,0.002356194490192345,nan,nan,nan
24.337532378000105,1526838.6458213413,-4462986.2865747055,4278788.930533352,0.006893978798315888,-0.036975834836748246,0.027471911795338637,0.9018275199234472,-0.3987321372533259,-0.06498320615429268,-0.15328728096217203,-0.010000000000000064,-0.010000000000000009,9.818563300000001,0.00148352986419518,-0.00034906585039886593,0.001265363707695889,nan,nan,nan
24.414194837000196,1526838.646350817,-4462986.289414546,4278788.932643267,0.007313895412607997,-0.03772310532026577,0.02822678044052767,0.9018485991153783,-0.39869876560937223,-0.06503440109914109,-0.15322834530731036,-5.551115123125783e-17,0.010000000000000009,9.818563300000001,-0.000698131700797732,0.0007417649320975901,-0.002007128639793479,nan,nan,nan
24.48867117000009,1526838.6468938156,-4462986.292215187,4278788.934738881,0.00687953337927117,-0.03818008640957191,0.02953061977040205,0.9018591958716238,-0.3986779765239305,-0.06501508194640468,-0.15322826610264315,-0.010000000000000064,0.01999999999999999,9.818563300000001,-0.000698131700797732,-0.00034906585039886593,0.00017453292519943288,nan,nan,nan
24.564800919999925,1526838.6474174403,-4462986.295121204,4278788.936986557,0.005844963472718102,-0.03931577030617659,0.029254304968772675,0.9018508094026041,-0.39868774128097373,-0.06503907609262442,-0.15324203623650018,-0.020000000000000018,0.0,9.808563300000001,0.00039269908169872405,0.0007417649320975901,0.00017453292519943288,nan,nan,nan
24.63947204499982,1526838.6478539826,-4462986.298057578,4278788.939171471,0.005408703540731093,-0.03971199865134598,0.029522848307056974,0.9018614693761946,-0.3986668277853413,-0.06501964089147899,-0.15324195683061176,-0.010000000000000064,0.010000000000000009,9.808563300000001,-0.000698131700797732,-0.00034906585039886593,0.00017453292519943288,nan,nan,nan
24.71528529499983,1526838.6482655301,-4462986.301079258,4278788.941417861,0.0045686132034392715,-0.04136331909849065,0.029771603741047363,0.9018226900170992,-0.39875780259582577,-0.0650189189613158,-0.15323378013062602,-0.020000000000000018,0.0,9.818563300000001,0.002574360646691636,-0.00034906585039886593,0.00017453292519943288,nan,nan,nan
24.790467086999797,1526838.6486071597,-4462986.304172305,4278788.943644108,0.004292453355138066,-0.042364542850037414,0.030466042895938954,0.9018081989457127,-0.3987700466226176,-0.06502622697021793,-0.1532840911303281,-0.010000000000000064,0.010000000000000009,9.818563300000001,0.00039269908169872405,0.0007417649320975901,0.001265363707695889,nan,nan,nan
24.866449502999785,1526838.648933732,-4462986.307395423,4278788.945961981,0.004577675192523618,-0.042553868692243514,0.02957316749799948,0.9018126981538737,-0.3987514422519311,-0.0649898805487084,-0.15332142946583718,-5.551115123125783e-17,0.0,9.7985633,-0.000698131700797732,-0.00034906585039886593,0.001265363707695889,nan,nan,nan
24.941002628000206,1526838.649274932,-4462986.310567204,4278788.948166237,0.005340712496690415,-0.04418983890978554,0.028127205204077625,0.9018154060321226,-0.39871187176368716,-0.06508046612349803,-0.1533699782998974,-5.551115123125783e-17,-0.020000000000000018,9.808563300000001,-0.000698131700797732,0.0029234264970905022,0.00017453292519943288,nan,nan,nan
25.0205904620002,1526838.6433565905,-4462986.2742348295,4278788.921636757,0.007707582898357077,-0.02797167145065638,0.02237906736381183,0.9018922416663419,-0.39846324034533986,-0.06520986906560035,-0.1535092962942262,-0.010000000000000064,0.0,9.808563300000001,-0.001788962483294188,-0.00034906585039886593,0.001265363707695889,42.403123,-71.113596,21.3
25.095736502999898,1526838.6439648313,-4462986.276442202,4278788.923402792,0.008890460471884163,-0.02932989100492012,0.02227490332132069,0.901896891902692,-0.3984439534076467,-0.06517217755734903,-0.15354803873163347,-5.551115123125783e-17,-0.010000000000000009,9.818563300000001,-0.000698131700797732,-0.00034906585039886593,0.001265363707695889,nan,nan,nan
25.180975711999963,1526838.644628905,-4462986.278633,4278788.925066617,0.009463976136575517,-0.03141239090990178,0.02376116823545958,0.9019048919295721,-0.3984167861002415,-0.06518947704488284,-0.15356419864807386,-0.010000000000000064,0.0,9.8385633,-0.000698131700797732,0.0007417649320975901,0.00017453292519943288,nan,nan,nan
25.252601711999887,1526838.6454062408,-4462986.281213097,4278788.927018272,0.011872712511639131,-0.0336954233489013,0.025988330869335705,0.9019027179909965,-0.3984243952062783,-0.0652332277108149,-0.15353864381367535,0.009999999999999953,0.0,9.8485633,0.00039269908169872405,0.0007417649320975901,-0.000916297857297023,nan,nan,nan
25.32744791999994,1526838.6462887598,-4462986.283717736,4278788.9289500285,0.011812173075450214,-0.03370239739225034,0.026524708252700133,0.9018783702946085,-0.39847048955786485,-0.06526289277128224,-0.15354943676266036,-0.010000000000000064,0.010000000000000009,9.808563300000001,0.00148352986419518,0.0007417649320975901,0.00017453292519943288,nan,nan,nan
25.40370304499993,1526838.6471914707,-4462986.286293343,4278788.930977102,0.011999787128652298,-0.03433198082742972,0.028610025312245532,0.9018753841079671,-0.39849308721698096,-0.06521180764623583,-0.15353003510924715,-0.010000000000000064,0.01999999999999999,9.8285633,0.00039269908169872405,-0.0014398966328953218,0.00017453292519943288,nan,nan,nan
25.479607294999823,1526838.6481012467,-4462986.288896256,4278788.9331462,0.012281133515401197,-0.035480361635440105,0.030101731914623495,0.9018293234465443,-0.39862468448433136,-0.06519665049764957,-0.15346540200433703,-0.010000000000000064,0.010000000000000009,9.8285633,0.003665191429188092,-0.0014398966328953218,-0.000916297857297023,nan,nan,nan
25.554133544999786,1526838.6490219925,-4462986.291556303,4278788.935402999,0.013054785223904079,-0.036002963531910015,0.030923765576730475,0.9018047560399993,-0.3986711737330538,-0.0652265632677522,-0.15347629529987497,-5.551115123125783e-17,0.010000000000000009,9.818563300000001,0.00148352986419518,0.0007417649320975901,0.00017453292519943288,nan,nan,nan
25.63195354499976,1526838.6499981373,-4462986.294248352,4278788.93771526,0.013342094269007735,-0.034995593424439586,0.03017247396782967,0.9017929108752414,-0.39868967954876255,-0.06519710053627746,-0.15351033826708915,-5.551115123125783e-17,0.010000000000000009,9.7885633,0.00039269908169872405,-0.00034906585039886593,0.001265363707695889,nan,nan,nan
25.704861836999953,1526838.651011242,-4462986.296905671,4278788.9400063455,0.0134471837700029,-0.03583599570417728,0.03092409584455917,0.901803749798746,-0.3986684237131509,-0.06517733472520806,-0.15351026147414407,-0.010000000000000064,0.010000000000000009,9.818563300000001,-0.000698131700797732,-0.00034906585039886593,0.00017453292519943288,nan,nan,nan
25.779376169999978,1526838.6520110744,-4462986.299570168,4278788.942305631,0.014378451656668793,-0.036821654301887,0.030092268660744867,0.9018081361442211,-0.39865025248426805,-0.06514181307630378,-0.15354675680129787,-5.551115123125783e-17,-0.010000000000000009,9.808563300000001,-0.000698131700797732,-0.00034906585039886593,0.001265363707695889,nan,nan,nan
25.85359983699982,1526838.6530807156,-4462986.302309403,4278788.944544254,0.014600764032347755,-0.0381308636946861,0.03138610668447554,0.9017953971581544,-0.3986837609587546,-0.06502314608947811,-0.15358486722827094,-0.010000000000000064,0.010000000000000009,9.8285633,0.00039269908169872405,-0.002530727415391778,0.002356194490192345,nan,nan,nan
25.92570741999998,1526838.654133424,-4462986.305058621,4278788.946807178,0.01468156467838078,-0.039411448966266305,0.03160539234231351,0.901767243751523,-0.3987734449971426,-0.06500270996360286,-0.15352597798428108,-0.010000000000000064,0.0,9.818563300000001,0.002574360646691636,-0.0014398966328953218,-0.000916297857297023,nan,nan,nan
26.00034412800005,1526838.655229319,-4462986.30800046,4278788.94916634,0.01612021704739178,-0.040310601169043114,0.03068476470201907,0.9017444648951151,-0.39884111901335295,-0.06490611814181393,-0.15352484554530477,0.009999999999999953,-0.010000000000000009,9.808563300000001,0.00148352986419518,-0.002530727415391778,0.001265363707695889,nan,nan,nan
26.07832116999998,1526838.643745089,-4462986.273750949,4278788.921494452,0.01284403656451676,-0.027529464339108363,0.02423141959142394,0.9017777328139471,-0.39876716099146947,-0.06488332259430582,-0.1535311920152186,0.009999999999999953,0.0,9.818563300000001,0.00148352986419518,-0.00034906585039886593,0.00017453292519943288,42.403123,-71.113596,21.3
26.17795762800006,1526838.6447458717,-4462986.275895991,4278788.923382518,0.012362246475785644,-0.025630884079982548,0.023451019425881126,0.9017801695148234,-0.3988032406642575,-0.06475459237755042,-0.1534775046326652,-5.551115123125783e-17,0.01999999999999999,9.7785633,0.00039269908169872405,-0.003621558197888234,0.00017453292519943288,nan,nan,nan
26.353764587000114,1526838.647231377,-4462986.281049238,4278788.928097489,0.015332447862608446,-0.022316817110289162,0.021280561233105844,0.9017751757931679,-0.39876113702300764,-0.06461478957792435,-0.15367503846711508,0.019999999999999962,0.010000000000000009,9.7885633,-0.000698131700797732,-0.00034906585039886593,0.002356194490192345,nan,nan,nan
26.428138045000196,1526838.648371547,-4462986.282708787,4278788.9296799805,0.015826214826881974,-0.024086305232458312,0.021998718791602756,0.9017758435180423,-0.3987742720335953,-0.06461783373591803,-0.15363575147545042,-5.551115123125783e-17,0.0,9.8285633,0.00039269908169872405,-0.00034906585039886593,-0.000916297857297023,nan,nan,nan
26.502965502999814,1526838.6495557718,-4462986.284511088,4278788.931326074,0.01489492399695282,-0.024088712789946794,0.021741787079628427,0.9017424210188413,-0.39881702381707723,-0.06466822316073771,-0.1536997368857557,-0.010000000000000064,0.010000000000000009,9.7985633,0.00148352986419518,0.001832595714594046,0.001265363707695889,nan,nan,nan
26.57727250300013,1526838.6506626378,-4462986.28630116,4278788.932941741,0.014267679551099356,-0.024678548501913262,0.022977834624451188,0.9017530242450804,-0.3987962207481859,-0.06464887396345939,-0.15369964617337945,-0.010000000000000064,0.01999999999999999,9.818563300000001,-0.000698131700797732,-0.00034906585039886593,0.00017453292519943288,nan,nan,nan
26.64958800300019,1526838.651690268,-4462986.288078634,4278788.934596721,0.014292095416950718,-0.02490386734318984,0.022172154105897512,0.9017512216709143,-0.3987811351269887,-0.06459878767783832,-0.1537704057000143,-5.551115123125783e-17,0.0,9.7985633,-0.000698131700797732,-0.00034906585039886593,0.002356194490192345,nan,nan,nan
26.726064795000184,1526838.6527793936,-4462986.289976427,4278788.936286344,0.014299146397647,-0.025174832596378767,0.02242387748441005,0.9017833851128254,-0.3986977749742586,-0.06471814054965883,-0.15374775902618332,-5.551115123125783e-17,0.010000000000000009,9.808563300000001,-0.001788962483294188,0.0029234264970905022,-0.002007128639793479,nan,nan,nan
26.799924378000014,1526838.6538433752,-4462986.291849655,4278788.937954877,0.013899618723109398,-0.026040726209299876,0.022189872934889887,0.9017491546927221,-0.3987553910569267,-0.06467888289992456,-0.15381561291873408,-0.010000000000000064,0.0,9.808563300000001,0.00148352986419518,-0.00034906585039886593,0.002356194490192345,nan,nan,nan
26.87626046200012,1526838.6549046347,-4462986.293837909,4278788.939649112,0.013497428988525007,-0.027038451175602003,0.022967036959610387,0.9017868466603621,-0.39866160518535115,-0.06462958333422833,-0.15385845851363886,-0.010000000000000064,0.010000000000000009,9.818563300000001,-0.002879793265790644,-0.00034906585039886593,0.001265363707695889,nan,nan,nan
26.951485669999784,1526838.655913681,-4462986.2958592605,4278788.941366091,0.012349717023226337,-0.028214330213259815,0.024898488079893588,0.9017749791165593,-0.3986800822625667,-0.06460013265523375,-0.15389250294968107,-0.020000000000000018,0.01999999999999999,9.8285633,0.00039269908169872405,-0.00034906585039886593,0.001265363707695889,nan,nan,nan
27.027525044999948,1526838.656854183,-4462986.298007944,4278788.943262255,0.013483609597201952,-0.029116198333615458,0.025225168311098667,0.901772988627244,-0.39868714506776864,-0.0646407074330934,-0.15386882997962695,0.009999999999999953,0.0,9.818563300000001,0.00039269908169872405,0.0007417649320975901,-0.000916297857297023,nan,nan,nan
27.10545941999999,1526838.6428429787,-4462986.270001904,4278788.918155386,0.00619792521105093,-0.02102481226532652,0.01936502753502151,0.9018229822120526,-0.3986197895200326,-0.06442911588322765,-0.15383907741669464,0.009999999999999953,0.0,9.8285633,-0.000698131700797732,-0.0014398966328953218,0.001265363707695889,42.403123,-71.113596,21.3
27.19083254499992,1526838.6433300762,-4462986.271654253,4278788.919677292,0.007265489421944282,-0.0224461118709424,0.0192299574330867,0.9018369470000752,-0.3986043795048386,-0.06436999333211374,-0.15382189109590094,0.009999999999999953,-0.010000000000000009,9.818563300000001,-0.000698131700797732,-0.0014398966328953218,0.00017453292519943288,nan,nan,nan
27.263398212000084,1526838.643929894,-4462986.273507339,4278788.921264862,0.005389698626022964,-0.020656882357310814,0.01988007825700661,0.9018318939392659,-0.3986051200198132,-0.0644545845018952,-0.15381417509886536,-0.010000000000000064,0.03,9.7885633,0.00039269908169872405,0.001832595714594046,-0.000916297857297023,nan,nan,nan
27.439215169999898,1526838.644880525,-4462986.277150785,4278788.924771295,0.005783136208072203,-0.023378608689904858,0.02338950433724857,0.9018013281261855,-0.3987378380896753,-0.06438983508797441,-0.15367644829157293,-5.551115123125783e-17,0.010000000000000009,9.8285633,0.00148352986419518,-0.0014398966328953218,-0.000916297857297023,nan,nan,nan
27.514448128999902,1526838.6453136273,-4462986.278901622,4278788.926522948,0.004924598381331812,-0.02444259161886323,0.02422687282692221,0.9017983503272491,-0.3987599805196036,-0.06433977728694072,-0.15365743359328146,-0.010000000000000064,0.010000000000000009,9.818563300000001,0.00039269908169872405,-0.0014398966328953218,0.00017453292519943288,nan,nan,nan
27.588461128999825,1526838.645678788,-4462986.280714048,4278788.928319379,0.005047131340624466,-0.026282102923511443,0.02499601026096621,0.9017938907962042,-0.39873820580240205,-0.06432468802380763,-0.15374640426206418,-5.551115123125783e-17,0.0,9.8285633,-0.000698131700797732,0.0007417649320975901,0.002356194490192345,nan,nan,nan
27.663146879000124,1526838.6460556483,-4462986.282676486,4278788.930185787,0.003629463937836013,-0.025877113404515074,0.026443052039512086,0.9017945604480485,-0.3987514050309206,-0.06432774474928535,-0.15370695997383402,-0.010000000000000064,0.03,9.808563300000001,0.00039269908169872405,-0.00034906585039886593,-0.000916297857297023,nan,nan,nan
27.73521183699995,1526838.6463179006,-4462986.284546275,4278788.932096468,0.00205873885539452,-0.027165350808672696,0.02724211760762352,0.901768913508284,-0.3988254894527381,-0.06418299643907643,-0.15372572692208616,-0.020000000000000018,0.010000000000000009,9.818563300000001,0.00148352986419518,-0.003621558197888234,0.002356194490192345,nan,nan,nan
27.810124711999833,1526838.6464710417,-4462986.286566994,4278788.934122899,0.0009694702315146513,-0.02831227138942375,0.02695947614218547,0.9017795211565033,-0.3988046607697602,-0.06416362680125795,-0.15372562350994975,-0.010000000000000064,0.0,9.808563300000001,-0.000698131700797732,-0.00034906585039886593,0.00017453292519943288,nan,nan,nan
27.885981253999944,1526838.6465447412,-4462986.288719306,4278788.936172371,0.00018874798048005778,-0.030530707551294202,0.027723349889390573,0.9017764848392921,-0.3988271375017487,-0.06411281504606152,-0.1537063215572823,-0.010000000000000064,0.0,9.8285633,0.00039269908169872405,-0.0014398966328953218,0.00017453292519943288,nan,nan,nan
27.960179961999984,1526838.6465588375,-4462986.290999434,4278788.938242837,-0.001167670186279935,-0.03128092415935605,0.029057706863802716,0.9017934629740222,-0.3987809731312953,-0.06401788358634855,-0.15376604548356101,-0.010000000000000064,0.01999999999999999,9.818563300000001,-0.001788962483294188,-0.0014398966328953218,0.002356194490192345,nan,nan,nan
28.034720087000096,1526838.646471844,-4462986.293329915,4278788.940407684,-0.001410861725922686,-0.03316786722602608,0.028814014846378303,0.9017904797245214,-0.3988030018512135,-0.06396808705002792,-0.15374713261907788,-5.551115123125783e-17,-0.010000000000000009,9.818563300000001,0.00039269908169872405,-0.0014398966328953218,0.00017453292519943288,nan,nan,nan
28.110365670000192,1526838.6413578177,-4462986.267780933,4278788.91613176,0.000608150072307731,-0.024407674767755582,0.021212414964684314,0.9017898409266142,-0.39873273851827795,-0.06412242568127223,-0.15386877888891654,0.009999999999999953,0.010000000000000009,9.818563300000001,-0.001788962483294188,0.001832595714594046,0.001265363707695889,42.403123,-71.113596,21.3
28.396204087000115,1526838.6415278255,-4462986.2746040765,4278788.922061672,0.0017710638828022235,-0.026649752205444143,0.0245865418178445,0.9017591152749229,-0.3987684999841618,-0.06421057678574298,-0.15391940691336595,0.009999999999999953,0.010000000000000009,9.818563300000001,0.00039269908169872405,0.0007417649320975901,0.00017453292519943288,nan,nan,nan
28.468740419999904,1526838.6416737542,-4462986.276799913,4278788.924087509,0.0019076854882758149,-0.02626995787081039,0.026734317612542104,0.9017517907554526,-0.39880267397551616,-0.06409706204935654,-0.1539210911236787,0.009999999999999953,0.03,9.818563300000001,0.00039269908169872405,-0.002530727415391778,0.001265363707695889,nan,nan,nan
28.54316837899978,1526838.6418156624,-4462986.278754072,4278788.926076211,0.0008389096457035033,-0.027523135055973102,0.029646637512967557,0.9017123384405938,-0.3988477275793363,-0.06413098796379046,-0.15402131621413329,-0.010000000000000064,0.03,9.8385633,0.00148352986419518,0.001832595714594046,0.002356194490192345,nan,nan,nan
28.617644545000076,1526838.6418781483,-4462986.280804123,4278788.92828443,0.0005639977634531862,-0.0284557553239408,0.030404779282871688,0.9016890258451373,-0.39885620240751596,-0.0641586999500944,-0.15412427533962988,-5.551115123125783e-17,0.010000000000000009,9.818563300000001,0.00039269908169872405,0.001832595714594046,0.002356194490192345,nan,nan,nan
28.69008633700014,1526838.6419187589,-4462986.28285307,4278788.930473716,0.0005545274067508682,-0.029796398613250185,0.030590945095535307,0.901670482291487,-0.39891292221167135,-0.06411663487027543,-0.1541034702608745,-5.551115123125783e-17,0.0,9.818563300000001,0.00148352986419518,-0.0014398966328953218,0.00017453292519943288,nan,nan,nan
28.764229587000045,1526838.6419601212,-4462986.285075593,4278788.932755505,-0.0003942427105436547,-0.03098430980793816,0.030217581815670882,0.9016685771119627,-0.3988972584152925,-0.06406474466013437,-0.15417672757596657,-0.010000000000000064,0.0,9.808563300000001,-0.000698131700797732,-0.00034906585039886593,0.002356194490192345,nan,nan,nan
28.838875169999937,1526838.6419307115,-4462986.287386961,4278788.935009677,-0.0011945765069573538,-0.03267733471306063,0.030374549359329397,0.9016943771385112,-0.3988548409681182,-0.06394943316379985,-0.1541834512127298,-0.010000000000000064,0.0,9.818563300000001,-0.001788962483294188,-0.002530727415391778,0.001265363707695889,nan,nan,nan
