# t [sec],r_ecef_X,r_ecef_Y,r_ecef_Z,v_ecef_X,v_ecef_Y,v_ecef_Z,q_e2b_scalar,q_e2b_i,q_e2b_j,q_e2b_k,accel_X [m/s^2],accel_Y [m/s^2],accel_Z [m/s^2],gyro_X [rad/s],gyro_Y [rad/s],gyro_Z [rad/s],gps_lat [deg],gps_long [deg],gps_alt [m]
0.0,1526405.969016564,-4463096.21889462,4278820.273843555,0.0,0.0,0.0,0.901797015,-0.39979036,-0.066508461,-0.150021455,0.0,0.0,0.0,0.0,0.0,0.0,0.0,0.0,0.0
0.09372641699974338,1526405.969016564,-4463096.21889462,4278820.273843555,0.0013398111819190317,-0.0037503472749912947,-0.0009111803863907642,0.9017896254975919,-0.39976472137343055,-0.06656600749964671,-0.15010864762710693,-0.00040000000000001146,-0.010399999999999965,9.8375133,-0.0004999641086442091,0.002681625673637121,0.001636246173744684,nan,nan,nan
0.1765964169999279,1526405.969129988,-4463096.219212112,4278820.273766417,0.003526558575945471,-0.006856444353321389,-0.001943521468778242,0.9017575335965815,-0.39981054057139565,-0.06668704819578077,-0.15012568204507148,0.009599999999999997,-0.0003999999999999837,9.8275133,0.001681697456348703,0.002681625673637121,-0.000545415391248228,nan,nan,nan
0.26257600000008097,1526405.969434308,-4463096.21980378,4278820.273598704,0.004722513893766406,-0.011750539291610573,-0.0031452142363561086,0.9017624411497971,-0.399772355809966,-0.06679629682965789,-0.15014932083861965,-0.010399999999999993,-0.010399999999999965,9.8375133,-0.0004999641086442091,0.002681625673637121,-0.000545415391248228,nan,nan,nan
0.3468539579998833,1526405.9698322862,-4463096.220794029,4278820.273333648,0.00904659375684505,-0.014762958742744192,-0.004859373189872229,0.901729713932455,-0.3998348312024826,-0.06681551735930412,-0.15017096245722408,0.029599999999999987,-0.010399999999999965,9.8275133,0.001681697456348703,0.0004999641086442091,0.000545415391248228,nan,nan,nan
0.43395670800055086,1526405.9706217044,-4463096.222082265,4278820.272909612,0.010264705591474965,-0.01635076716208478,-0.009066670672699229,0.9017497607751395,-0.39984941359825765,-0.06660653987754273,-0.1501045795084052,-0.00040000000000001146,-0.010399999999999965,9.787513299999999,-0.0004999641086442091,-0.00495418980383807,0.000545415391248228,nan,nan,nan
0.5177444999999352,1526405.9714820385,-4463096.223452701,4278820.272149691,0.012283317916101377,-0.018873112377195744,-0.011955824407922921,0.901751486483656,-0.399805465741991,-0.06675387261671042,-0.15014581990439776,0.009599999999999997,-0.010399999999999965,9.807513299999998,-0.0004999641086442091,0.003772456456133577,-0.000545415391248228,nan,nan,nan
0.6025337080000099,1526405.9725219088,-4463096.225050445,4278820.271137546,0.013981537719396364,-0.022238331205219508,-0.013084012789426447,0.9017440034772363,-0.39982350622896595,-0.06678470739750178,-0.15012900943587681,-0.00040000000000001146,-0.0003999999999999837,9.8275133,0.0005908666738522469,0.0004999641086442091,-0.000545415391248228,nan,nan,nan
0.6927319579999676,1526405.9737838206,-4463096.227057578,4278820.269956641,0.01752008798232152,-0.02519889611617271,-0.015595269206902185,0.9017393113526402,-0.3998501294392338,-0.06677319108377971,-0.150091405010176,0.019600000000000006,-0.010399999999999965,9.8175133,0.0005908666738522469,-0.0005908666738522469,-0.000545415391248228,nan,nan,nan
0.7769449580000583,1526405.9752596507,-4463096.229180244,4278820.268642951,0.018598497565538358,-0.029415344642445496,-0.01740525306495705,0.9017494711557777,-0.39984350952002984,-0.06669574664319529,-0.15008243435336788,-0.010399999999999993,-0.010399999999999965,9.8275133,-0.0004999641086442091,-0.001681697456348703,0.000545415391248228,nan,nan,nan
0.8596208330000081,1526405.9767900947,-4463096.231600791,4278820.267210697,0.020336491354325303,-0.030818449835108896,-0.01903378018467078,0.9017511511161578,-0.3998003637173775,-0.06684039686353371,-0.15012292475170982,0.009599999999999997,0.009600000000000025,9.807513299999998,-0.0004999641086442091,0.003772456456133577,-0.000545415391248228,nan,nan,nan
0.9453569170000264,1526405.9785461703,-4463096.234261994,4278820.265567112,0.02318859907299195,-0.034492212725175275,-0.020837622890537977,0.9017992221368156,-0.39970863898183223,-0.06674686731448032,-0.15012002910062938,0.009599999999999997,-0.010399999999999965,9.8275133,-0.002681625673637121,-0.001681697456348703,0.000545415391248228,nan,nan,nan
1.0368931250004607,1526405.9514808904,-4463095.914217608,4278820.454624472,0.004502186741932437,0.5009452376037837,0.4727892509688099,0.9148767706665564,-0.3662557370086525,-0.06833285195459272,-0.15552444021271652,-0.010399999999999993,-0.0003999999999999837,9.8375133,-0.0004999641086442091,-0.0005908666738522469,0.000545415391248228,42.403553,-71.119,15.8
1.1249641670001438,1526405.9519053947,-4463095.866984254,4278820.499203042,0.006122979603429432,0.5479727270017611,0.5180388282518318,0.9148758413984893,-0.36624400980704547,-0.06827418927801418,-0.1555832759040579,0.019600000000000006,0.009600000000000025,9.807513299999998,-0.0004999641086442091,-0.0005908666738522469,0.001636246173744684,nan,nan,nan
1.1989413749997766,1526405.9524215127,-4463095.82079456,4278820.542869549,0.007315294420757026,0.588014201313921,0.5567795957388217,0.9148773524184696,-0.36624156696128285,-0.06842243062819905,-0.15551500315143316,0.009599999999999997,-0.020399999999999974,9.807513299999998,0.0005908666738522469,0.002681625673637121,-0.00272707695624114,nan,nan,nan
1.2814228329998514,1526405.952952863,-4463095.77808383,4278820.583311537,0.008506805292779793,0.6225971335915765,0.5921902677200176,0.9148862519214327,-0.36622095696151585,-0.06844250351359982,-0.15550235045452074,0.009599999999999997,-0.0003999999999999837,9.8275133,-0.0004999641086442091,0.0004999641086442091,-0.000545415391248228,nan,nan,nan
1.3562603330001366,1526405.9536721534,-4463095.725440311,4278820.633384013,0.024646489127644763,0.6616629542355617,0.6286281774793349,0.9147977693638444,-0.3663975888224088,-0.06881271257883552,-0.15544342770393194,0.1696,-0.09039999999999998,9.8375133,0.006045020586334527,0.007044948803622946,-0.003817907738737596,nan,nan,nan
1.436215749999974,1526405.955646287,-4463095.6724424595,4278820.683735846,0.027674993785344035,0.706362257588405,0.6774440537918507,0.9149636092612713,-0.3658611921033716,-0.06588999637129808,-0.1569894607138433,0.049600000000000005,0.13960000000000003,9.867513299999999,-0.02777073367105561,-0.05076908266868922,0.06054110842855331,nan,nan,nan
1.5101214169999366,1526405.9576946886,-4463095.620160115,4278820.733877771,0.02276164442218069,0.7358492245470499,0.7103745413503317,0.9145101354359896,-0.3664448879382284,-0.06856967104245074,-0.15712274519834138,-0.06040000000000001,-0.08039999999999997,9.8275133,0.030043297801256558,0.06594981105843156,-0.020180369476184436,nan,nan,nan
1.5890049170002385,1526405.9594889947,-4463095.562152937,4278820.789876773,0.03170009283738161,0.7741843188774075,0.7535302416850832,0.9154301014697979,-0.3655531015960696,-0.06605578225818169,-0.15490414269313327,0.0896,0.02960000000000003,9.887513299999998,-0.0354065491485308,-0.07694902144860416,-0.033270338866141905,nan,nan,nan
1.6630297920000885,1526405.9618349152,-4463095.504860523,4278820.845640711,0.011371342303669388,0.8116154098486006,0.7975415974593325,0.9163428225857752,-0.3645385533100684,-0.0662427828712791,-0.1517872488727278,-0.21039999999999998,0.13960000000000003,9.8175133,-0.02777073367105561,-0.02349831310627782,-0.08453938564347534,nan,nan,nan
1.7400873750002575,1526405.9627075696,-4463095.4425759055,4278820.906845283,0.12731273006255356,0.8565299576172685,0.8417553001877381,0.9150818100096247,-0.3642468193844197,-0.07699956948631173,-0.15498581358792557,1.5196,-0.25039999999999996,10.1675133,0.04204243640871757,0.2906609522527015,-0.021271200258680893,nan,nan,nan
1.8138767500004178,1526405.9721399415,-4463095.379117136,4278820.969209424,0.1455834160273054,0.9063979849451543,0.9495537061795873,0.918911444335406,-0.3551279829106011,-0.09100612156307572,-0.1456151077946863,0.1096,0.7396,10.457513299999999,-0.18485036635054525,0.2841159675577228,-0.40415280491493694,nan,nan,nan
1.8901641669999663,1526405.9832527908,-4463095.30992887,4278821.041691905,0.09392375962151933,0.8751786373334973,0.9785088170565007,0.9202298462084344,-0.3517829028887191,-0.09852048426111217,-0.14042625865588146,-1.2904,-0.7103999999999999,10.107513299999999,-0.05176901088597764,0.14230796583318348,-0.20780326406557487,nan,nan,nan
1.9646554580003794,1526405.9902441194,-4463095.2447838895,4278821.1145283915,0.043062453372754356,0.8937798032621658,1.0806287318192573,0.9168982237729191,-0.3616012928694314,-0.09549832322829577,-0.1393636360552902,-1.2604,0.36960000000000004,10.4075133,0.265662746820491,-0.11294643727098722,0.0409061543436171,nan,nan,nan
2.0485713750003924,1526405.5462301753,-4463096.750263847,4278819.86763195,-0.7245417353876888,-1.451389214493414,-0.8664942971135345,0.8772989327138115,-0.4587508736293354,-0.061714914379974055,-0.1268285792057403,-2.1904000000000003,-1.0704,9.717513299999998,0.3300217629877819,-0.1631246532658242,0.35179292735510703,42.403545,-71.119008,15.9
2.7322737089998554,1526405.0535449346,-4463097.737202224,4278819.278419583,-0.9804884480901583,-2.2531142148115793,-1.5178043266171195,0.8723480586321891,-0.46674637746972353,-0.0790230933072352,-0.12211484348940699,-0.3074,-0.07839999999999997,10.009513299999998,0.03462478708774167,0.03627921377452797,-0.03217950808364545,nan,nan,nan
2.807103666999865,1526404.9702106065,-4463097.928700411,4278819.149417345,-0.9357141254312571,-2.348613511991604,-1.610619933457043,0.8735775631282117,-0.4637785180915967,-0.08486002697170376,-0.12070834161252043,0.3296,-0.06039999999999998,10.107513299999999,-0.05504150323346701,0.11067387314078626,-0.10199267816341863,nan,nan,nan
2.8793244999997114,1526404.9024507904,-4463098.098775453,4278819.03278417,-0.906206124095414,-2.355049737666784,-1.7071677184086247,0.8742219311607037,-0.4620573855827415,-0.08315783092558231,-0.12378918861754157,0.4296,0.26960000000000006,9.127513299999999,-0.0626773187109422,0.002681625673637121,0.08999353955595762,nan,nan,nan
2.956032167000558,1526404.8327644838,-4463098.279876323,4278818.901504751,-0.8447415134368473,-2.3670180509064918,-1.7980795556819797,0.8760740507976041,-0.4587157724555259,-0.0787417045277317,-0.1259914367900445,0.7796,0.25960000000000005,9.367513299999999,-0.117218857835765,-0.06713154440613606,0.08999353955595762,nan,nan,nan
3.036649167000178,1526404.7647489237,-4463098.4704601355,4278818.756729828,-0.7722879996020904,-2.4000338784608273,-1.8879697331546028,0.8805091181136113,-0.4505604719946467,-0.07871191228063404,-0.124512607460542,0.8496,0.06960000000000002,9.627513299999999,-0.22521110530291413,-0.0005908666738522469,-0.061631939211049765,nan,nan,nan
3.116486167000403,1526405.544279874,-4463096.8170502605,4278819.8788086055,0.8920588770757976,0.39578755389137044,0.5650030526014616,0.9220099602273302,-0.33247377643939363,-0.1367559493438161,-0.14372415279813863,1.2796,0.27960000000000007,9.557513299999998,-0.17503288930807714,-0.05840489814616441,-0.10417433972841154,42.403545,-71.119008,15.9
3.197491083999921,1526405.6221881707,-4463096.782484006,4278819.928153359,1.0400517461126741,0.5179421626911236,0.5783861833102176,0.9241464982348269,-0.33181676054348647,-0.1259586919821005,-0.14136935910457524,0.7196,-0.3104,9.547513299999999,-0.058313995580956374,-0.25039111586554064,0.0234528618236738,nan,nan,nan
3.2856105420005406,1526405.703262197,-4463096.742109423,4278819.9732396705,1.1616760117248788,0.6135153479947166,0.5980297490346395,0.9241395146487519,-0.33213209682736256,-0.11957415712277004,-0.14613845909600223,0.7296,-0.4004,9.6575133,-0.031043226018544978,-0.11185560648849076,0.16853335589570245,nan,nan,nan
3.360618875,1526405.8025467251,-4463096.689674336,4278820.024351255,1.2868790524100462,0.7219468372437079,0.6437844508128016,0.9268574213096907,-0.32660347130188,-0.11482158088973057,-0.14519469072745614,0.6996,-0.2004,9.807513299999998,-0.1543071044406445,-0.09876563709853328,-0.00818123086872342,nan,nan,nan
3.5387625419998585,1526406.0318639074,-4463096.561026027,4278820.139071311,1.4413514501307192,0.8899426114664539,0.6541769765732647,0.9338961286951273,-0.30837338372759965,-0.10936522246090902,-0.14416353800273796,0.1696,-0.7604,9.437513299999999,-0.22302944373792122,-0.03986077484372466,-0.025634523388666716,nan,nan,nan
3.612657417000264,1526406.138239549,-4463096.495345851,4278820.187351344,1.6010752392038006,0.9977501294639193,0.7468301821090935,0.9355072264785668,-0.30403678751528646,-0.11132205351351429,-0.1414046038926753,1.4896,-0.2704,10.437513299999999,-0.10740138079329689,0.03867904149602017,-0.105265170510908,nan,nan,nan
3.689449292000063,1526406.261307398,-4463096.418653039,4278820.244757006,1.7454650793057294,1.0840525110593178,0.8326978302388565,0.936991808441858,-0.29604808782417336,-0.1234103845802126,-0.1384621180793395,1.0996000000000001,-0.6304,10.4275133,-0.15321627365814802,0.2961151061651838,-0.19580412545811385,nan,nan,nan
3.763384916999712,1526406.3902833038,-4463096.338550231,4278820.306286714,1.8644322905895465,1.131004531521932,0.8413752521241271,0.9337441557681134,-0.29869807107207264,-0.12780511490714555,-0.1502237233829385,0.6095999999999999,-1.6604,9.8175133,0.07040403675362543,0.20666698200047437,0.28416141884032675,nan,nan,nan
3.8402232090002144,1526406.5337314806,-4463096.251531498,4278820.371021565,2.0647683631450193,1.3172221661063932,0.9532350718981994,0.9342249977898616,-0.29695395147413944,-0.12439908299683214,-0.15351505761560005,1.7796,0.35960000000000003,10.287513299999999,-0.07031313418841739,-0.05185991345118568,0.09872018581592927,nan,nan,nan
3.9139275420002377,1526406.685977434,-4463096.154405956,4278820.441308472,2.172792924794836,1.4521558987794707,1.013831897406358,0.9366645244845877,-0.29288270052061594,-0.123439179334813,-0.14711241235771538,0.6496,-0.3004,9.717513299999998,-0.10521971922830399,-0.06713154440613606,-0.17835083293817056,nan,nan,nan
3.9910799589997623,1526406.8534306912,-4463096.042490903,4278820.51944268,2.2865715807778133,1.5409906422006765,1.0970007368846244,0.9384340093892907,-0.2918944921884349,-0.11587364731448441,-0.14391842782069666,0.4396,-0.7504,10.2675133,-0.056132334015963466,-0.2100303769131718,-0.02999784651865254,nan,nan,nan
4.064954334000504,1526407.0216932057,-4463095.929093639,4278820.600167948,2.4614142843596443,1.7091341440801486,1.2362859044677306,0.935245949674482,-0.30381235249422084,-0.11574715448495654,-0.14005593480743747,1.7196,0.38960000000000006,10.5975133,0.3409300708127465,-0.07040403675362543,-0.04745113903859584,nan,nan,nan
4.148178375000498,1526405.737805164,-4463096.737058591,4278819.910640451,0.694089675887692,0.11801092899809373,0.5186180846055757,0.9384250519180728,-0.33177364630001643,-0.09188365923152163,-0.02901832655969945,1.0896,-1.1004,10.5975133,-0.028861564453552067,0.12812716566072954,-0.14780757102826977,42.403545,-71.119006,15.9
4.246993083999769,1526405.7930577388,-4463096.727664405,4278819.95192472,0.7784737974084281,0.11352186017149535,0.5705304377538113,0.9319461369046911,-0.34602739322839865,-0.1017172270043989,-0.03735033241168157,1.4296,-0.7904,10.457513299999999,0.378018317417626,0.3059325832076519,0.1521708941582556,nan,nan,nan
4.321852459000183,1526405.8712055776,-4463096.716268403,4278820.009197965,0.8780421598616233,0.11754236450448685,0.5647972613856856,0.9311831103755247,-0.34573184294119685,-0.10301649894281027,-0.052489134400926396,1.2296,-0.8804,9.9075133,-0.02995239523604852,0.13030882722572246,0.27216228023286576,nan,nan,nan
4.402288125000268,1526405.941904398,-4463096.706804045,4278820.054674711,0.9289296761955476,0.1930619274647128,0.5741518303917845,0.929061820735906,-0.3473283750932755,-0.11255676164159374,-0.0594820062830021,0.8496,-0.1404,9.3975133,0.049678251886192765,0.2841159675577228,0.08672104720846825,nan,nan,nan
4.4770844590002525,1526406.0110533815,-4463096.692432627,4278820.097414238,0.9568928869184583,0.3184080907894911,0.5724661463813054,0.92463814761051,-0.3563427681970936,-0.12240210249633762,-0.05551444315003607,0.5496,0.36960000000000004,8.777513299999999,0.2940243471653989,0.20775781278297084,-0.15653421728824143,nan,nan,nan
4.553857709000113,1526406.0848684576,-4463096.667870508,4278820.141574492,0.9542006064956939,0.44065158059954435,0.5683514045553283,0.9272827187749659,-0.34395681730566874,-0.13897844910741958,-0.05025394044952198,-0.00040000000000001146,0.4796,8.707513299999999,-0.2808434752102334,0.3582924607674818,-0.3223404962277028,nan,nan,nan
4.627858542000467,1526406.155246239,-4463096.63536992,4278820.183493676,0.9514886442378276,0.5039808502282881,0.5646926904655796,0.9271417766237339,-0.33833186362383,-0.15435848719871548,-0.04596883816545473,-0.39039999999999997,-0.26039999999999996,9.1675133,-0.10303805766331108,0.3550199684199924,-0.27216228023286576,nan,nan,nan
4.7045562089997475,1526406.2283838408,-4463096.596630676,4278820.226899627,0.9933053882868045,0.5518390101437934,0.651892554837107,0.9269801979164631,-0.338498459164157,-0.15687197664822297,-0.038957532178909626,-0.4204,0.24960000000000004,10.3375133,0.036588282496235296,-0.0005908666738522469,-0.19034997154563155,nan,nan,nan
4.778563333999955,1526406.3015515432,-4463096.555981754,4278820.274918575,1.0141442311564968,0.6311055220394681,0.6407892187459465,0.9237703302082162,-0.33902196572715215,-0.17493056610121827,-0.03334338587715843,-0.2504,-0.21039999999999995,9.047513299999999,0.0856756677085758,0.41610649223979396,-0.30161471136027007,nan,nan,nan
4.855409624999993,1526406.379445764,-4463096.507507907,4278820.324136206,1.0633135064948918,0.7042650878521881,0.6239215976924634,0.9214124244543294,-0.34175618524004936,-0.18282703199966358,-0.027859124866063678,-0.1904,-0.2804,9.187513299999999,0.11840059118346949,0.14994378131065866,-0.1870774791981422,nan,nan,nan
4.929229291999945,1526406.4580454114,-4463096.455448954,4278820.370256205,1.1301202781427833,0.8251987363022062,0.6108877823090053,0.9247065447912749,-0.3372544502967188,-0.17568666890093473,-0.017647569307944734,0.059599999999999986,0.36960000000000004,8.887513299999998,-0.09758390375082879,-0.2852977009054272,-0.21325741797805714,nan,nan,nan
5.004974833999768,1526406.5440780304,-4463096.392629085,4278820.4167612335,1.2401275429401848,0.9027670102988442,0.5746917885389558,0.9247291033739338,-0.3369948473028671,-0.17597840478613247,-0.018497563899919748,0.7496,-0.3104,9.2375133,-0.010317441151112312,0.014680764281098137,0.016907877128695067,nan,nan,nan
5.080156209000052,1526406.6368092916,-4463096.325124155,4278820.459734147,1.2974615941738237,1.0000536228907937,0.6267155654551395,0.9237681123449818,-0.3398309054755082,-0.17469550797282912,-0.02547371879302487,-0.22039999999999998,0.5796,9.6675133,0.04531492875620694,0.034315718366034344,0.19798578702310676,nan,nan,nan
5.162984417000189,1526405.8207205085,-4463096.725133864,4278819.933005185,0.015641552380324386,0.023840424805380622,0.10401771343838284,0.9212097584518267,-0.3684597946276882,-0.12493067879313273,0.0015121934670693452,-0.7904,-0.7804,10.0175133,-0.35720162998498534,-0.12821806822593762,0.1947132946756174,42.403545,-71.119005,15.9
5.2482047920002515,1526405.8219701264,-4463096.72322923,4278819.941315255,-0.06953426853223202,0.0033490990925829633,0.05687614297550986,0.9269407108344755,-0.3579742961797296,-0.11239989900475787,0.0012590205600539282,-0.7904,-0.9704,9.3175133,-0.29502427538268733,-0.3049326549903634,0.08890270877346117,nan,nan,nan
5.320868126000278,1526405.81610144,-4463096.7229465665,4278819.946115597,0.10959892789456688,-0.06825206611767887,0.33416372344749096,0.9313217414502678,-0.35445993337009185,-0.08313673372976194,0.009287281561546694,1.6796,1.2096,13.1475133,-0.09212974983834651,-0.7227208446865061,0.06272276999354623,nan,nan,nan
5.398051916999975,1526405.8245430829,-4463096.728203548,4278819.9718539035,-0.01572553267962934,-0.003408056562730799,0.41455312262981664,0.9329627947479363,-0.34787963501650104,-0.09218212372589472,0.00791452961560315,-0.7804,0.5996,9.707513299999999,-0.17939621243806297,0.22630193608541058,-0.06381360077604267,nan,nan,nan
5.472398376000456,1526405.823382914,-4463096.728454981,4278820.0024380265,-0.035997443514126704,-0.005123526770487774,0.49352149439161386,0.9451652032451825,-0.3165039121652477,-0.07621118329269025,0.02607428343138758,0.3296,-0.07039999999999996,10.5075133,-0.8600746207158515,-0.6125469356543641,-0.38451785083000073,nan,nan,nan
5.550848083999881,1526405.8205430142,-4463096.728859185,4278820.04137278,-0.15819001817033604,0.019013479683181567,0.4439900112335268,0.9419534722274767,-0.3282572700846295,-0.06504983505738793,0.027190812987847337,-0.1704,-1.5904,8.7575133,0.3169317935978245,-0.2623902544730017,0.0834485548609789,nan,nan,nan
5.622257875999821,1526405.8091957606,-4463096.727495315,4278820.0732209785,-0.19871822446426327,0.12974698658849243,0.44776226557564014,0.9428240030554714,-0.32872248144880195,-0.049447994203277945,0.02406918940508213,0.8696,0.10960000000000003,8.6575133,0.01040834371632035,-0.3823816405476118,0.22634738736801463,nan,nan,nan
5.699805625999943,1526405.7938460447,-4463096.717473187,4278820.107807759,-0.22704235914366494,0.17319089269455784,0.4083200561553777,0.9463947835364309,-0.3194156312391464,-0.043648763709464584,0.020133410007036816,1.3796,-1.0004,8.8175133,-0.2590268595603043,-0.11840059118346949,0.13580843242080878,nan,nan,nan
5.7732920010003,1526405.7771657251,-4463096.70474922,4278820.137806166,-0.2740098115802534,0.13807227004671924,0.3618107153124558,0.9491809067214998,-0.3128672943523258,-0.03271436554602788,0.009971623923612642,1.1996,-2.1104,9.297513299999999,-0.19903116652299918,-0.2002128998707037,0.3507020965726106,nan,nan,nan
5.850748959000157,1526405.7559902926,-4463096.694079018,4278820.165766838,-0.39565758790354566,0.02875719697556295,0.33077995283826345,0.9438895215472334,-0.32871079563401134,-0.030762059449405858,0.008687934286575697,0.3296,-2.9303999999999997,9.937513299999999,0.43146902575995233,-0.0289524670187601,0.05945027764605685,nan,nan,nan
5.923872209000365,1526405.7268785655,-4463096.6919631185,4278820.190104993,-0.4924034745559762,0.044005230778004334,0.37577261928403644,0.9386862807594,-0.3434124118529622,-0.02902825487154015,0.00966140131014593,0.5396000000000001,-0.6903999999999999,9.8275133,0.4249240410649736,-0.04531492875620694,0.001636246173744684,nan,nan,nan
6.000819709000098,1526405.6890071786,-4463096.68857862,4278820.21900615,-0.6174915538526251,0.02252231181679154,0.46174217067045925,0.9354821094420576,-0.3525194643600301,-0.023503624969097126,0.007129539340961477,0.2296,-0.4403999999999999,10.527513299999999,0.25039111586554064,-0.10749228335850493,0.11726430911836902,nan,nan,nan
6.074924583999746,1526405.6433971166,-4463096.686915044,4278820.253112024,-0.7670555351379518,-0.007117836832358115,0.47743802946368497,0.9364598266352513,-0.35047654070411455,-0.0061683066819500304,0.01308205120675458,-0.04039999999999999,-0.9404,9.9175133,-0.05395067245097055,-0.4969188727097397,0.0136353847812057,nan,nan,nan
6.151441417000569,1526405.5844460544,-4463096.687462076,4278820.289804907,-0.9376794754658531,-0.014715029569129512,0.46300010555810134,0.936007619430433,-0.3515239278532347,0.006022394379482038,0.01686403977379147,0.1296,-1.0204,9.4075133,0.03440662093124238,-0.3311125937702784,0.019089538693687978,nan,nan,nan
6.2464184589998695,1526406.1841876085,-4463096.104959316,4278820.2405188065,-0.017151811497566838,0.626385706827752,0.5329084012446607,0.945576096066515,-0.3244086300107909,-0.01181873528990639,0.022476774124064087,1.3296,-0.9404,8.867513299999999,-0.23284692078038932,-0.5721861967019952,-0.14889840181076625,42.40355,-71.118998,15.8
6.61821641700044,1526406.1774481437,-4463095.858833449,4278820.449914616,-0.15737632956967518,0.9810932808435703,0.38980110032217763,0.9405233245080723,-0.33643660680785936,0.04125431571035719,0.02289907526329485,1.9596,-0.7604,8.5975133,0.07236753216211904,-0.2545362728390272,0.0858483825824711,nan,nan,nan
6.894572166999751,1526406.1339733982,-4463095.587809334,4278820.557596016,-0.5675801920484596,0.8948628300628961,0.600079273614967,0.9428165990993761,-0.3279303330816346,0.05874609714271928,-0.010365989335296229,1.8196,-0.8403999999999999,10.117513299999999,-0.050678180103481185,-0.038769944061228204,0.27216228023286576,nan,nan,nan
6.973415166999985,1526406.0892839786,-4463095.517350743,4278820.6048443075,-0.6887208787687087,0.9106937437287643,0.6120234545727599,0.9472666864871709,-0.31430688443278926,0.05946702700001013,-0.018991585670912945,1.7196,-1.0904,9.297513299999999,-0.35065664529000656,0.06485898027593512,0.2318015412804969,nan,nan,nan
7.047520959000394,1526406.038021106,-4463095.449565986,4278820.650398437,-0.8215489734063204,0.881429564113345,0.6490971634946465,0.9455553422938261,-0.31954635244305624,0.05253102234749561,-0.032491776618353625,1.4496,-1.6304,9.9275133,0.1729421303082923,0.2852067983402192,0.27761643414534803,nan,nan,nan
7.124131292000129,1526405.9750872366,-4463095.382045029,4278820.700121822,-0.920143094011837,0.8144859473478319,0.7278116952382071,0.9451515903040805,-0.32200926091292303,0.04442380303841863,-0.03201614455757307,1.7496,-1.6404,10.6475133,0.07040403675362543,0.1935770126105169,-0.08235772407848242,nan,nan,nan
7.1982910420001645,1526405.906982539,-4463095.32176058,4278820.753991047,-1.062465270835616,0.7441632009380624,0.833859608824409,0.9415174634730162,-0.33229499299314347,0.03588075686694545,-0.042865784145706014,1.0096,-1.3304,11.0875133,0.31475013203283153,0.29938759851267316,0.19362246389312093,nan,nan,nan
7.2908762510005545,1526406.0269462324,-4463095.615441416,4278820.6753395535,-0.8635327674866817,0.252591081762598,0.5332928577908456,0.9341809735116623,-0.35042192557316004,0.03320342461587822,-0.0583773582558027,1.1196000000000002,-0.9903999999999998,10.3975133,-0.12267301174824728,0.0081357795861194,-0.18271415606815636,42.403556,-71.118998,15.8
7.367062084000281,1526405.9471634685,-4463095.592104242,4278820.72461108,-1.0621771872539771,0.3988118534022748,0.5602684958258068,0.9250985031767447,-0.3757936041727384,0.028920646832752174,-0.046211721743863156,0.4496,0.5296000000000001,8.6575133,0.578731181396974,-0.044224097973710484,-0.28525224962282325,nan,nan,nan
7.441345041999739,1526405.86821175,-4463095.562460524,4278820.766255884,-1.1721308810213915,0.41785063288104723,0.567393311850944,0.9278864165942079,-0.3674474035903698,0.03178463062471635,-0.05476259040123768,1.0295999999999998,-0.15039999999999995,9.387513299999998,-0.23284692078038932,0.02777073367105561,0.24489151067045437,nan,nan,nan
7.518561251000392,1526405.7776915492,-4463095.530191156,4278820.810073991,-1.2833432616659737,0.40753943744787896,0.5244812224688202,0.9278587764757388,-0.3680693071157525,0.03036504883785362,-0.05177876439330441,0.9496,-1.0604,9.1775133,0.014771666846306175,0.004863287238630033,-0.08563021642597178,nan,nan,nan
7.592022917000577,1526405.683452445,-4463095.500264516,4278820.848587959,-1.3576499993149935,0.5029797098697706,0.5502918345390424,0.9253822239454715,-0.3737753622117779,0.03433964309284102,-0.05273051941893842,1.5696,0.5596,8.8475133,0.16421548404832065,-0.1009472986635262,0.06272276999354623,nan,nan,nan
7.668903417000365,1526405.578685819,-4463095.461450767,4278820.891052673,-1.4300440436065531,0.6044934340093651,0.5604391369933841,0.9241548851811863,-0.3766597031088648,0.036338571719329846,-0.05239012322792015,1.6896,0.5096,8.6575133,0.07803985223110062,-0.0562232365811715,0.01036289243371633,nan,nan,nan
7.7430097090000345,1526405.4732042216,-4463095.416862677,4278820.93239127,-1.4802483508612236,0.6485471414289482,0.6161347418361808,0.9233269674330811,-0.3792562637707454,0.028898802502457476,-0.052885322842508346,1.9996,0.4496,9.5875133,0.08458483692607935,0.18703202791553816,-0.06490443155853913,nan,nan,nan
7.819910209000227,1526405.359383608,-4463095.366993995,4278820.979767668,-1.647911870192607,0.5137243340949367,0.6756046430155467,0.9218511029081389,-0.38185490110549053,0.013951950665438705,-0.06467396847372765,0.1996,-0.9504,11.297513299999999,0.10640145257600847,0.47064803136461675,0.13580843242080878,nan,nan,nan
7.893536333999691,1526405.2380218331,-4463095.32916036,4278821.029523107,-1.735301515133755,0.38081371735133673,0.7412145380511674,0.9257857534862407,-0.3712926557654218,0.020677080096496644,-0.06808055032095592,0.7696,-0.9404,11.447513299999999,-0.31575006025012,-0.11294643727098722,0.1521708941582556,nan,nan,nan
7.969914250999864,1526405.104886393,-4463095.299943649,4278821.086390414,-1.8088690341706413,0.36245388661899913,0.7734654214295328,0.9272358295448395,-0.3695036751854723,0.032781877980059965,-0.051245482391818434,1.2096,-0.4503999999999999,9.9975133,-0.08776642670836068,-0.45110397984488854,-0.2907064035353055,nan,nan,nan
8.044583875999706,1526404.970237724,-4463095.272963292,4278821.143965666,-1.8162691978222805,0.4899763755484606,0.8145458134589818,0.9259285081360639,-0.3732226140393896,0.049187796506884485,-0.030689402439161153,2.5696000000000003,0.9096000000000001,8.6775133,0.06494988284114314,-0.6190919203493428,-0.3507020965726106,nan,nan,nan
8.120844209000097,1526404.831852011,-4463095.235630869,4278821.206027779,-1.861181969889516,0.44387243542298144,0.830971472465962,0.9297456154451611,-0.36312702478478476,0.029149874825940093,-0.05349896995109659,2.3696,-0.8303999999999999,9.947513299999999,-0.23721024391037515,0.7237207729037944,0.36815538909255385,nan,nan,nan
8.194821293000132,1526404.6936502545,-4463095.202671195,4278821.267731426,-2.0554101303329606,0.5076531993260136,0.786777639350894,0.9284455798158858,-0.36880503552322613,0.01915879585429263,-0.04005736126127531,-0.1804,-0.3004,8.4875133,0.15876133013583837,0.1095830423582898,-0.43687772838983063,nan,nan,nan
8.281094793000193,1526404.5364297077,-4463095.163840252,4278821.3279129,-2.06654536345223,0.6451859838808787,0.8514982890366827,0.9275285625677935,-0.37085473789888745,0.027478157247268244,-0.0374497053381245,2.3696,1.2396,8.877513299999999,0.04858742110369631,-0.229665330998108,0.016907877128695067,nan,nan,nan
8.362081168000259,1526406.4866572865,-4463094.99486878,4278821.330399121,0.910266991423343,0.8096769302779228,0.634014689862336,0.921639924643452,-0.3730715616232364,-0.0794172101237093,-0.07134680444228923,1.1096,-1.5804,9.887513299999998,0.08022151379609353,-0.0289524670187601,0.43578689760733413,42.403563,-71.11899,15.9
8.43607941800019,1526406.5596621402,-4463094.929931408,4278821.3812481025,1.0138734639371112,0.6115958737411237,0.5549910665262384,0.920828025933804,-0.3727334361470991,-0.08127692451052154,-0.08086775829518723,1.2496,-2.9604,11.0175133,-0.015771595063594594,0.13358131957321182,0.2023491101530926,nan,nan,nan
8.512927708999996,1526406.6376120697,-4463094.882909903,4278821.423917643,1.0217354913248775,0.5068984774716447,0.5201311896878766,0.9091713337881343,-0.3976343186244767,-0.09827462633742037,-0.07507684626395245,0.1096,-1.7304000000000002,10.4075133,0.7576274297263927,0.3233858757275952,-0.2263473873680146,nan,nan,nan
8.586815083999682,1526406.7130730678,-4463094.8454725575,4278821.4623323,1.0806055929002893,0.5151665419358857,0.5828183073789133,0.9130801980737709,-0.38876282033511483,-0.08012297552084338,-0.09342553591542584,0.7096,0.7896000000000001,10.477513299999998,-0.3462933221600208,-0.24166446960556903,0.6157739767192494,nan,nan,nan
8.663864043000103,1526406.7963348548,-4463094.805778438,4278821.507239058,1.1686652520720546,0.4383673006311847,0.48420108740950174,0.9122233946050156,-0.39263351233672866,-0.0870545775757496,-0.07815948058477379,1.1596,-1.8504,9.867513299999999,0.14894385309337027,0.002681625673637121,-0.42160609743488026,nan,nan,nan
8.737585584000044,1526406.882283172,-4463094.773539154,4278821.542849142,1.2064926511540854,0.5216533318059606,0.5285738592149709,0.9068716458607196,-0.40409569167006587,-0.09412777934543065,-0.0736915980272268,0.8696,1.1696,9.527513299999999,0.36711000959266143,0.11612802705326854,-0.14780757102826977,nan,nan,nan
8.814578917999825,1526406.9754162102,-4463094.73327106,4278821.583651454,1.2499286652111423,0.5744160879066628,0.3719750720409446,0.9163160876589347,-0.38452135754982153,-0.09200351458528794,-0.06358857559474085,1.0196,-0.8303999999999999,8.107513299999999,-0.5382795398793969,-0.14130803761589508,-0.2808889264928374,nan,nan,nan
8.888276792999932,1526407.0674986113,-4463094.690953755,4278821.611054904,1.2234500824998695,0.690356784936606,0.35009281056284425,0.9080659960214831,-0.4005958484961699,-0.100952086654941,-0.06890420737448744,0.1896,0.7596,8.4275133,0.48819222644976806,0.2710259981677653,0.093266031903447,nan,nan,nan
8.965086543000325,1526407.1615084654,-4463094.637906767,4278821.637956021,1.2207566616295793,0.7810211495626485,0.34035021011169786,0.9054859840936198,-0.4091812562738617,-0.08992881740107775,-0.06766565215635398,0.2396,0.9096000000000001,8.867513299999999,0.21330286926066117,-0.2820252085579379,0.1129009859883832,nan,nan,nan
9.038827125999887,1526407.251542779,-4463094.580304212,4278821.663057827,1.2988432503443696,0.7286381146199149,0.3693094611652365,0.9028225326656447,-0.4116812704672395,-0.09029367283614403,-0.08530568128898444,1.0796000000000001,0.14960000000000004,10.797513299999999,0.04858742110369631,0.20666698200047437,0.44015022073731996,nan,nan,nan
9.116132125999684,1526407.3519030435,-4463094.524003104,4278821.691593985,1.2477404687814528,0.6181748769010863,0.39880301516677136,0.9004825777236051,-0.4173539705198635,-0.07799430218381002,-0.09414711833702048,-0.9104000000000001,-0.18039999999999998,10.9275133,0.10967394492349784,-0.2002128998707037,0.35615625048509286,nan,nan,nan
9.18973245899997,1526407.4437439688,-4463094.478501853,4278821.720948197,1.4510533580272285,0.49681054756951415,0.3146292727676524,0.9141218065311325,-0.38990846126337586,-0.03966412962999039,-0.10382423626942036,2.6196,-1.7304000000000002,10.877513299999999,-0.945159421750575,-0.787079860853797,0.57868573011437,nan,nan,nan
9.277163708999979,1526407.5553291247,-4463094.440297412,4278821.745143005,1.6032218491887351,0.4669403685356397,0.1952032003263076,0.916280818928978,-0.3879489616405628,-0.02376086712596671,-0.09674960348766658,2.6596,-1.9204,9.2675133,-0.10412888844580753,-0.4467406567149027,-0.014726215563702157,nan,nan,nan
9.350776168000266,1526407.6899013622,-4463094.401103079,4278821.761528093,1.6667616462279429,0.5536251855107273,0.1997124151724296,0.9133404584814229,-0.39309385114499373,-0.030063998765943543,-0.10189498333034415,2.1096,0.3196,9.127513299999999,0.15112551465836319,0.17503288930807714,0.06381360077604269,nan,nan,nan
9.43440100099997,1526407.130259459,-4463094.257844376,4278821.927245867,0.8259747451255232,0.6909424192233008,0.4857703005328618,0.9215328292103976,-0.37776781048095764,-0.007286571628768078,-0.08953006468527994,2.7196,0.07960000000000003,8.637513299999998,-0.10303805766331108,0.1815778740030559,-0.020180369476184436,42.40357,-71.11898,15.9
9.71043525100049,1526407.3636022802,-4463094.062648998,4278822.064478892,0.28219735959259673,0.18546684921385015,0.6069677944395313,0.9016764255134795,-0.3958177597924809,0.020857678588225487,-0.17283773461473903,-0.6804,-1.1904000000000001,11.0675133,0.14894385309337027,0.028861564453552067,0.6332272692391927,nan,nan,nan
9.786844209000265,1526407.3850961947,-4463094.048522683,4278822.110709352,0.3356804143228498,0.2363175388231082,0.6029921937097467,0.9073477597048464,-0.3870086703864696,0.03572766720609248,-0.1602119419926379,2.1795999999999998,-0.24039999999999997,9.2575133,-0.34192999903003496,-0.440195672019924,-0.16526086354821307,nan,nan,nan
9.861240834000455,1526407.410057642,-4463094.030949933,4278822.155548304,0.29372745698160296,0.24268789985033584,0.6179620239000125,0.9050589602877589,-0.3868257309331159,0.016017805854457803,-0.17600443955553735,1.1896,-0.25039999999999996,9.687513299999999,0.11949142196596595,0.6440901257815532,0.19034997154563157,nan,nan,nan
9.937733001000197,1526407.432520951,-4463094.012389962,4278822.202808006,0.17529588540159863,0.21221904327787905,0.572866944599344,0.9069774458240859,-0.38238275370195635,0.020058418157620463,-0.17542235563202443,-0.48040000000000005,-0.7103999999999999,9.4175133,-0.14339879661567992,-0.08022151379609353,0.020180369476184436,nan,nan,nan
10.011820376000287,1526407.4455524543,-4463093.996613589,4278822.245394958,0.14242083253686227,0.23822785306693162,0.5418304021611522,0.9072306310042711,-0.38428330868980054,0.023668721695463506,-0.16940694495817554,0.8696,-0.5803999999999999,9.117513299999999,0.02349831310627782,-0.15876133013583837,-0.11181015520588673,nan,nan,nan
10.088673125999776,1526407.4564478972,-4463093.978388742,4278822.286845932,0.11095516626103683,0.31555677460078835,0.5352706241358867,0.9075501196520547,-0.3883084232603836,0.019961206961125477,-0.1586533942844558,1.2596,0.08960000000000003,8.877513299999999,0.10203812944602265,-0.037679113278731746,-0.2961605574477878,nan,nan,nan
10.16299541799981,1526407.464686494,-4463093.954958152,4278822.326590623,0.08729506953517172,0.4262763336432984,0.5702291332022887,0.9074559547279186,-0.3901184488514562,0.02171493755385286,-0.15446600965376026,1.5896,0.8596,8.9275133,0.03549745171373884,-0.09440231396854745,-0.08453938564347534,nan,nan,nan
10.24943200100006,1526407.4713501632,-4463093.9224183485,4278822.370119064,0.11084633176655617,0.4573274993512284,0.5784495436953996,0.9072516325659926,-0.38983244491855223,0.02834319008709502,-0.15531195777402154,1.8996,-0.25039999999999996,9.4875133,-0.031043226018544978,-0.14785302231087383,0.08890270877346117,nan,nan,nan
10.329151501000524,1526407.4813446966,-4463093.881183109,4278822.422275353,0.038809292386843,0.3577827050592267,0.5878818277990641,0.9085719059894383,-0.37999355775254,0.04979249663179394,-0.16620076879848303,0.5596,-0.9304,10.467513299999998,-0.27648015208024757,-0.30275099342537054,0.4063344664799298,nan,nan,nan
10.404160584000238,1526407.4842441517,-4463093.854453044,4278822.4661962,0.07174660275706218,0.25033807852611245,0.5464781341344044,0.9087201154679828,-0.3798432991070151,0.04915537613321723,-0.165923384190729,1.7396,-2.3004,10.2375133,-0.002681625673637121,0.013589933498601681,-0.013635384781205701,nan,nan,nan
10.488603876000525,1526407.7109802172,-4463093.4356605755,4278822.591172066,0.43296297385201543,0.6453780492438876,0.7954186891358883,0.921577649632007,-0.34535117746034877,0.033668662144538876,-0.1740506296215012,1.4596,-1.5804,10.307513299999998,-0.512099601099482,0.13030882722572246,0.02127120025868089,42.403578,-71.11897,15.9
10.562401334000242,1526407.7456762644,-4463093.383942372,4278822.65491397,0.45225688404399167,0.6540572134849616,0.768807855272975,0.9228931869020992,-0.3519767020719054,0.02377238489108865,-0.1543225227943408,1.5596,-1.6904000000000001,9.287513299999999,0.16748797639581003,0.02995239523604852,-0.550324129769462,nan,nan,nan
10.640782751000188,1526407.7812134987,-4463093.332548164,4278822.715325002,0.33867780741563125,0.7203050260478492,0.7988707906404345,0.9203180572497637,-0.3616570782029207,0.016729831635686643,-0.14811800895210728,0.3096,-0.010399999999999965,9.2575133,0.2743893930804627,0.07031313418841739,-0.20453077171808548,nan,nan,nan
10.715482751000309,1526407.8065139586,-4463093.278738767,4278822.775003546,0.29878735788092614,0.7338201682875134,0.8676200200215728,0.9152449849365198,-0.3750525461839696,0.020608627381058793,-0.14573088273831164,1.0295999999999998,-0.17039999999999997,10.1675133,0.3627466864626756,-0.17403296109078875,-0.007090400086226964,nan,nan,nan
10.992662335000205,1526407.8893566006,-4463093.075277678,4278823.015562367,-0.12215560902110234,0.24144823645340963,0.5969762229330128,0.9201460941125182,-0.3740985683770808,0.02382572575259744,-0.11319788857043844,-0.5504,-2.2304,10.0775133,-0.02777073367105561,-0.10749228335850493,-0.21107575641306422,nan,nan,nan
11.067021876000581,1526407.8802751505,-4463093.057327621,4278823.059943545,-0.08500403234636372,0.3983747594729942,0.664196820459538,0.9187263028950421,-0.37993280746501934,0.022849504391697067,-0.1052185482049515,2.8296,1.1996,8.807513299999998,0.15657966857084546,-0.07476735988361125,-0.2067124332830784,nan,nan,nan
11.143577542999992,1526407.8737691296,-4463093.026836896,4278823.110779702,-0.07593083432948239,0.33754599010694347,0.6733491741311342,0.9203029065421822,-0.3700536238652469,0.028698953233204955,-0.12360924849814475,1.8796,-1.1204,10.2475133,-0.25793602877780786,0.07031313418841739,0.5012367445571215,nan,nan,nan
11.242249292999986,1526407.8681448821,-4463093.001834639,4278823.160655124,-0.030724204264877736,0.14879231342603189,0.5277364265340342,0.9341112659020728,-0.3416131214586528,0.029254004622519005,-0.0994023235764451,1.5896,-4.1404000000000005,9.947513299999999,-0.8655287746283338,-0.15003468387586671,-0.6201372998492352,nan,nan,nan
11.315880834999916,1526407.8651262713,-4463092.9872159995,4278823.212504502,-0.08876055197248114,0.07269588754568274,0.582608514795291,0.9400679765960523,-0.3315032807936897,0.02757278253396619,-0.07495009287323619,1.3296,-1.5204,10.4175133,-0.24484605938785034,-0.11403726805348367,-0.48269262125468176,nan,nan,nan
11.394596543000262,1526407.858134288,-4463092.981489487,4278823.258398639,-0.11809002583242403,0.11046705233914517,0.6015164747086418,0.9362420141020643,-0.34563404761274175,0.038580792473962726,-0.049995191466502234,1.8596,-0.9704,9.3275133,0.3311125937702784,-0.502373026622222,-0.5056000676871073,nan,nan,nan
11.468832168000517,1526407.8493730316,-4463092.973293789,4278823.303025948,-0.2589147091801105,0.10882184078658236,0.6033092536299862,0.9328349945976706,-0.3536643937387577,0.05291378156672482,-0.04405112634675814,0.6896,-0.9804,9.4875133,0.20893954613067536,-0.43146902575995233,-0.020180369476184436,nan,nan,nan
11.551877918000173,1526408.2162461043,-4463092.636173035,4278823.255545756,0.27077450947104054,0.36200843427585355,0.5987005388247645,0.9280258507314243,-0.3662023292062157,0.04503849894952573,-0.05133623113630674,1.4696,-1.5904,9.877513299999999,0.4303781949774559,-0.3594741941151862,-0.16417003276571662,42.403586,-71.118961,15.9
11.628681500999846,1526408.2387245856,-4463092.606120724,4278823.30524718,0.11727799735974237,0.2893905635407426,0.5374466809266852,0.9278571603798264,-0.3680766051799351,0.03818276235636191,-0.04629017030304796,0.7196,-1.7104000000000001,9.537513299999999,0.0464057595387034,0.10631055001080043,-0.17507834059068117,nan,nan,nan
11.701924085000428,1526408.247350099,-4463092.5848367475,4278823.344775085,-0.01857386857559673,0.2267883741588091,0.4946907152084831,0.9323522458633616,-0.35761736772216807,0.02743217084425643,-0.045569556685722455,0.6796,-1.5404,9.6475133,-0.2961151061651838,0.28193430599272984,-0.12053680146585838,nan,nan,nan
11.778820667999753,1526408.2459172823,-4463092.567341943,4278823.3829362895,-0.13261203361269694,0.24030812040527832,0.4142708216630586,0.9329558206993261,-0.35859912243521563,0.023739304079263522,-0.020893827091300436,0.8896,-1.3304,8.5875133,0.00495418980383807,-0.1402172068333986,-0.6321364384566962,nan,nan,nan
11.852653626000574,1526408.2361313375,-4463092.549608696,4278823.413506905,-0.21119975924536005,0.3689008756837381,0.4201565558502788,0.9317931666352179,-0.3615630274231953,0.0321179014823663,0.0014535383052119927,1.5596,0.6096,8.3475133,0.06713154440613606,-0.43146902575995233,-0.4848742828196747,nan,nan,nan
11.929945668000073,1526408.2198459527,-4463092.521163149,4278823.4459047215,-0.2953837645760219,0.3263613241871167,0.44719078244367616,0.9358012267430595,-0.350894594376143,0.03254144392427897,-0.00949224145600822,1.8496,-0.8003999999999999,10.037513299999999,-0.28629762912271567,0.09540224218583587,0.27761643414534803,nan,nan,nan
12.003712585000358,1526408.1981118738,-4463092.497149768,4278823.478808628,-0.3348367689186902,0.2034010185879639,0.4770540565398802,0.9422834897687584,-0.33440114132510795,0.016041515746622485,-0.004513526224090948,2.3196000000000003,-1.8903999999999999,10.777513299999999,-0.4815563391895813,0.3822907379824038,-0.2710714494503693,nan,nan,nan
12.080644751000364,1526408.1723159654,-4463092.4814797025,4278823.515560992,-0.3326165847946237,0.2772660225361903,0.5385634992584757,0.9430651866606612,-0.332305717382336,0.010021002372696911,-0.010027161707041538,2.6296,0.04960000000000003,9.3975133,-0.05504150323346701,0.19575867417550982,0.0834485548609789,nan,nan,nan
12.154220376000012,1526408.1478036062,-4463092.461046433,4278823.55525072,-0.3243286295442474,0.17191166199857116,0.5325862560899168,0.946914385684399,-0.32085322537994826,0.003485389892061593,-0.019854635762749522,2.5195999999999996,-2.4204,10.2475133,-0.3233858757275952,0.26011769034280074,0.1947132946756174,nan,nan,nan
12.247443293000288,1526408.1227469088,-4463092.447765033,4278823.596396803,-0.34104181233913494,0.206239101865983,0.5872139899355593,0.9410277591172131,-0.3381364360178733,-0.002928982532604575,-0.011042138653383264,2.0396,-0.7203999999999999,9.717513299999998,0.4751022570598106,0.07467645731840322,-0.26779895710288,nan,nan,nan
12.32103858499977,1526408.092286475,-4463092.429344615,4278823.64884431,-0.32371408101281673,0.27496032494272676,0.546241304437453,0.9390051074918936,-0.3436958971240511,0.01008727535541752,0.006386379012007531,2.4096,-0.8203999999999999,8.6475133,0.1303997297909305,-0.4074707485450303,-0.26779895710288,nan,nan,nan
12.399739501000113,1526408.0667697801,-4463092.407670924,4278823.691901667,-0.29381252415176295,0.3336240258180621,0.5279616344598853,0.937628653137608,-0.34740964191362256,0.012477354714840369,0.0018345835695179424,2.9295999999999998,-0.5304,8.7475133,0.10203812944602265,-0.016953328411299085,0.1281726169433336,nan,nan,nan
12.474011710000013,1526408.0449467814,-4463092.382890916,4278823.73111615,-0.3211014761023831,0.31417599834732496,0.5367933165697769,0.9337116026466583,-0.35789703085935587,0.00745044838409309,-0.006070400373284973,2.2096,-1.0204,9.687513299999999,0.303841824207867,0.20012199730549562,0.14889840181076625,nan,nan,nan
12.55712433500048,1526408.637145198,-4463091.841790301,4278824.0431882525,0.6343373959336402,0.9918463131946706,1.054842784336583,0.9414572642999112,-0.3343667859138743,-0.03679470219800464,-0.022432619585382674,2.1496,-1.0504,10.5675133,0.23948280804057612,0.22957442843289996,0.05835944686356039,42.403595,-71.118953,16.0
12.835964668000088,1526408.818373912,-4463091.558422123,4278824.344554375,0.8113357613971514,0.9780004262676785,1.0626947142266423,0.9246456533891078,-0.37575125994339664,-0.061098106650814415,0.010412888168779855,2.1296,-1.2104000000000001,9.717513299999998,0.32456760907529963,0.08122144201338195,-0.26016314162540477,nan,nan,nan
12.907948001000477,1526408.8767454633,-4463091.488059882,4278824.421009946,0.8678482581355222,1.1227000405981349,1.0368954780870336,0.920204186583871,-0.38665934684219866,-0.059641203325634114,0.01271738635494097,2.2196,1.0696,8.137513299999998,0.3311125937702784,-0.05076908266868922,-0.026725354171163174,nan,nan,nan
12.985229210000398,1526408.9436009852,-4463091.401571609,4278824.500888182,0.9614435915537121,1.2304927320452332,0.9833645729521675,0.9192360297863174,-0.388696074392381,-0.061859159491702384,0.009691658184822195,2.6996,0.6296,8.3475133,0.05295074423368213,0.08558476514336777,0.05290529295107811,nan,nan,nan
13.058645459999752,1526409.0144801287,-4463091.310857737,4278824.573383375,0.9871455335227197,1.1933218695716723,0.9870935406245048,0.9211677198707586,-0.38420577730662886,-0.06187475815490469,-0.002732656644923576,1.6396,-0.2004,10.1475133,-0.15321627365814802,0.1270363348782331,0.3027055421427665,nan,nan,nan
13.13589662600043,1526409.0907098926,-4463091.218706538,4278824.649609124,0.9606080976864851,1.1016369021458514,0.9605733058028435,0.9270392126685745,-0.37168556024323884,-0.04852708330516285,-0.009657392201991258,0.8596,-1.1404,10.287513299999999,-0.3692007685924463,-0.25802693134301585,0.27761643414534803,nan,nan,nan
13.2091962100003,1526409.1611816636,-4463091.137888664,4278824.720078343,0.9661397252720227,1.0089740914184129,0.9173171840754372,0.925131331633553,-0.37686441605189963,-0.04324306460929,-0.015338483097637195,1.4696,-1.6704,10.1475133,0.14130803761589508,-0.07476735988361125,0.2045307717180855,nan,nan,nan
13.296212918000492,1526409.2356623819,-4463091.060105801,4278824.790795281,1.0392899562264757,0.8844002651187629,0.8713982731618276,0.9322347875825674,-0.3582062148740253,-0.04388450312580746,-0.026471860317321603,2.3495999999999997,-1.8404,10.477513299999998,-0.5295528936194253,0.12376384253074374,0.23725569519297918,nan,nan,nan
13.36995225100054,1526409.322642723,-4463090.9860885,4278824.863724417,1.0855142463018148,0.950226298255816,0.8376012804684513,0.9288647687235265,-0.36782028860871263,-0.04208647856196226,-0.012132831120405101,1.9996,-0.39039999999999997,8.9175133,0.2569361005605194,-0.16530631483081712,-0.29179723431780197,nan,nan,nan
13.4463350850001,1526409.4055854653,-4463090.913482936,4278824.92772445,1.094609098373723,1.0077798050708557,0.7917782402133177,0.9272787724162742,-0.3719738583108141,-0.04185282762301001,-0.0061537253954256415,1.7096,-0.3104,8.7375133,0.12276391431345532,-0.06276822127615024,-0.13799009398580167,nan,nan,nan
13.52081525199992,1526409.4870138005,-4463090.8385138605,4278824.986625097,1.0856645946831736,1.0513123814443954,0.7564368362408699,0.9256243312411345,-0.3764068660388339,-0.03903208634283863,-0.0037370316697348067,1.4996,-0.25039999999999996,8.9175133,0.12930889900843406,-0.09331148318605101,-0.026725354171163174,nan,nan,nan
13.604353876999994,1526409.2841471082,-4463091.143450019,4278824.546840547,0.6802436547557749,0.2993563798962331,0.024901936220527943,0.9097276188209523,-0.4124457242282699,-0.04692195903878256,0.009083745752210597,1.6796,-1.5004,9.8275133,0.25802693134301585,0.4106523383273117,0.30925052683774523,42.403601,-71.118943,16.0
13.67973483500009,1526409.3397408426,-4463091.118984757,4278824.548875688,0.6234064554956871,0.09731158245322402,-0.010876889707972626,0.9042947607620149,-0.4229201039023964,-0.05762027871640598,-0.008335191116606413,0.8596,-1.4304000000000001,11.1775133,0.265662746820491,0.4226514769347727,0.29070640353530547,nan,nan,nan
13.756094168000345,1526409.3873690958,-4463091.111550152,4278824.548044694,0.6278070990882463,-0.0004194742783846239,-0.07118476712624161,0.9071127346247243,-0.41823538472781585,-0.047166185959585806,0.0010005508515030046,1.2996,-0.6803999999999999,10.1775133,-0.13030882722572246,-0.35402004020270395,-0.11290098598838319,nan,nan,nan
13.830868668000221,1526409.43409411,-4463091.111581372,4278824.542746714,0.700301794437182,-0.07417687548780894,-0.15215536358350096,0.9112579233927808,-0.4089298510398253,-0.04581916616863267,-0.016910900354051277,2.5296000000000003,-0.7704,9.797513299999999,-0.2961151061651838,0.16303375070061613,0.44015022073731996,nan,nan,nan
13.907317793000402,1526409.4875286545,-4463091.117241228,4278824.53113693,0.7520279853300585,-0.07324441458725717,-0.22992509933200628,0.9044982593955836,-0.42253222480111113,-0.05701863561748585,-0.00991430804715399,2.1496,-0.35039999999999993,9.0775133,0.4107432408925197,0.19466784339301335,-0.26779895710288,nan,nan,nan
13.98138687699975,1526409.5434677238,-4463091.122689462,4278824.514034114,0.764814071428722,0.023832609553478712,-0.26525547288959905,0.8975490345123702,-0.4364607834599246,-0.06250997533018975,-0.00046764134817786396,1.5496,1.2096,8.4175133,0.43365068732494527,0.033224887583537886,-0.26888978788537643,nan,nan,nan
14.057599710000432,1526409.6018842226,-4463091.120869127,4278824.493773901,0.8374169683119028,0.08443939957528229,-0.3450679966914226,0.9008408966905534,-0.43107470822775845,-0.04954093818956798,0.014351681997615539,2.3095999999999997,0.7896000000000001,8.5175133,-0.14012630426819056,-0.4794655801897964,-0.2088940948480713,nan,nan,nan
14.132711709999967,1526409.6643077957,-4463091.114574761,4278824.468051497,0.7492220997414822,-0.14219651413150064,-0.4513085168461001,0.9050271667729568,-0.42295239467152224,-0.04512425674559586,-0.0009493442199350506,0.4596,-2.1104,11.0175133,-0.26339018269029013,0.061586487928445746,0.4117886203924121,nan,nan,nan
14.243718042999717,1526409.7214554914,-4463091.1254209485,4278824.43362747,0.5959629590711405,-0.3837633320884271,-0.6038845002268457,0.90990268719921,-0.4116488399972159,-0.05114082574007234,0.00263606828014519,-0.4404,-2.8903999999999996,10.637513299999998,-0.3179317218151129,0.09758390375082879,-0.16526086354821307,nan,nan,nan
14.31925987700015,1526409.7872709588,-4463091.167802044,4278824.366937184,0.7316708780092565,-0.30386160748413144,-0.6096168990269818,0.9215072712242741,-0.3852311406903566,-0.04638732039567803,-0.01641750244276928,2.6996,1.0296,9.217513299999998,-0.5393703706618934,0.05176901088597764,0.3256129885751921,nan,nan,nan
14.399976542999866,1526409.846358108,-4463091.192340831,4278824.317706682,0.8440320772071496,-0.24915307263240344,-0.6456973558093445,0.9178311880240709,-0.394682889044762,-0.04058789022150437,-0.012804339487861376,2.8596000000000004,0.06960000000000002,9.047513299999999,0.2525727774305336,-0.16639714561331356,-0.014726215563702157,nan,nan,nan
14.475900084999921,1526409.910613215,-4463091.211308544,4278824.26855055,0.8745238977618877,-0.29076964799427624,-0.7318398513036193,0.9156876707986553,-0.3996305694404684,-0.03954206455379688,-0.015745577270910496,1.9696,-1.0904,9.3375133,0.13803554526840572,0.005954118021126489,0.08781187799096471,nan,nan,nan
14.552848293000352,1526409.9776744037,-4463091.233605657,4278824.212430813,0.8492960031559331,-0.35221730711483973,-0.810226955555456,0.908105384335214,-0.4167236650993585,-0.037710635728393324,-0.01624519612875531,1.2096,-1.1004,9.547513299999999,0.4860105648847751,-0.037679113278731746,0.05181446216858166,nan,nan,nan
14.632851585000026,1526409.867056921,-4463090.322339592,4278825.183972248,0.6209430721990092,0.8011189804883854,0.7656656586537953,0.9391085554021801,-0.34038694405547587,-0.045523725101107554,-0.011808492565697852,1.3296,-1.9004,10.5075133,-0.011408271933608768,0.31465922946762354,0.05945027764605685,42.403609,-71.118933,16.0
14.7114532100004,1526409.9195842291,-4463090.2545707,4278825.248742044,0.4628437540064161,0.7618903942987978,0.8103509053455431,0.9462943678079213,-0.3205067141542188,-0.036659540322607605,-0.021412479939469726,-0.47040000000000004,-1.0404,10.1675133,-0.512099601099482,-0.12167308353095886,0.26125397240790116,nan,nan,nan
14.78761466800006,1526409.9548909343,-4463090.196452082,4278825.310557333,0.6086404952464843,0.9205664055894343,0.9002420782264284,0.9457128969810733,-0.32407676133348756,-0.019456788561401348,-0.01492659314415362,3.4996,0.8796,9.4075133,0.09003899083856164,-0.4827380725372858,-0.012544553998709244,nan,nan,nan
14.863379252000414,1526410.0011402066,-4463090.126500236,4278825.378964777,0.5979202339549654,0.9217630141665131,0.9303487607823822,0.9447218783116298,-0.32453586614223157,-0.04100565459274451,-0.022261650316824613,1.7296,-1.1304,9.8175133,0.024589143888774277,0.5993660636991985,-0.000545415391248228,nan,nan,nan
14.938130710000223,1526410.0459026827,-4463090.057493716,4278825.448614058,0.5622093040926923,1.1488721993269129,0.9767032165015597,0.9376988287405037,-0.3443470623041802,-0.04623332447774402,-0.002913335829372897,1.1396,1.4096,8.187513299999999,0.5852761660919527,-0.03986077484372466,-0.5077817292521002,nan,nan,nan
15.014066210000237,1526410.0885188277,-4463089.970407814,4278825.522649343,0.6348005299054981,1.389336735321415,0.9223267470741803,0.9368867625659686,-0.34627736167693146,-0.04754683231485427,0.008630307775233357,2.6496000000000004,1.0896,7.137513299999999,0.06931320597112897,-0.07149486753612189,-0.29506972666529135,nan,nan,nan
15.0888800849998,1526410.136147885,-4463089.866165937,4278825.59185148,0.6486556235850058,1.4987993677391487,1.0066673486872555,0.9362128616528234,-0.3473088782680645,-0.053291655930425445,-0.006482338849035121,1.6896,1.0396,9.557513299999998,0.011499174498816806,0.2841159675577228,0.3256129885751921,nan,nan,nan
15.164634292999835,1526410.18534836,-4463089.752482129,4278825.6682071155,0.4714942529864825,1.305723675068081,1.074633524740197,0.9445061238051025,-0.31795687825862445,-0.07004931115640695,-0.043642871421962715,-1.1704,-2.2403999999999997,11.7575133,-0.8502571436733833,0.7477190501187165,0.7215845626214057,nan,nan,nan
15.24959900199974,1526410.2206507262,-4463089.65471819,4278825.748668554,0.4774995763497668,1.259177778401003,1.2464549595329384,0.9439297640499313,-0.32008963299958937,-0.0748950482916909,-0.03049524036575181,0.5096,-0.6204,11.8475133,0.08894816005606518,0.009226610368615856,-0.3681553890925539,nan,nan,nan
15.324064668000574,1526410.2610140638,-4463089.548279106,4278825.854032171,0.5803264941792218,1.3078491879862744,1.2777229938150876,0.9565851669039291,-0.28439584107250976,-0.05199616317369042,-0.036881209470502836,1.9996,-0.7604,9.807513299999998,-0.921161144535653,-0.4598306261048602,0.24380067988795792,nan,nan,nan
15.404612418000397,1526410.3077675113,-4463089.44291349,4278825.956970698,0.6655004753773115,1.3915097476543052,1.2382918666475353,0.9570409405855885,-0.2867124492690301,-0.034047446411949546,-0.026634215340080123,2.3095999999999997,-1.6404,8.6475133,0.04858742110369631,-0.5012821958397256,-0.11399181677087965,nan,nan,nan
15.478540293000151,1526410.3569907276,-4463089.339991572,4278826.048559977,0.6767402810608827,1.4821057494836236,1.2517184931230037,0.9558488304056116,-0.2912832802705142,-0.031493069199379636,-0.02269914527525504,1.7496,-1.0304,8.937513299999999,0.12930889900843406,-0.09876563709853328,-0.07690357016600013,nan,nan,nan
15.557591501999923,1526410.410498805,-4463089.222805361,4278826.147530072,0.6102013370701282,1.502164769423726,1.2667587625890298,0.952999396209867,-0.30076732682376794,-0.030284923095313773,-0.020346742461026895,0.7696,-1.7104000000000001,9.4075133,0.2514819466480371,-0.049678251886192765,-0.038724492778624185,nan,nan,nan
15.637469377000343,1526410.4217647442,-4463089.391064715,4278825.924930805,0.4949707915631137,1.0555794739715152,0.8946261658625226,0.9432829692536654,-0.3302420190419661,-0.030777251723603075,-0.014498624354283687,0.6696,-0.9704,10.217513299999998,0.2002128998707037,-0.002772528238845159,-0.00272707695624114,42.403618,-71.118923,16.0
15.715725002,1526410.463725563,-4463089.301578669,4278826.000772142,0.3758862324970228,0.9998699665305607,1.0301792702851214,0.946428137914001,-0.319035179009917,-0.019761117138186474,-0.0458239361573016,0.1796,-0.7504,11.137513299999998,-0.3004784292951696,0.0004999641086442091,0.7739444401812355,nan,nan,nan
15.79004687700035,1526410.4916526414,-4463089.227291705,4278826.077310985,0.45230685642701507,1.039952575073112,1.0650456316334376,0.9476822138628417,-0.31593989229954034,-0.005139442498343034,-0.045320995899637076,2.6696,-0.9604,9.6575133,-0.10740138079329689,-0.37365499428764015,0.10962849364089383,nan,nan,nan
15.866353668000556,1526410.5261627124,-4463089.14794549,4278826.158571748,0.40514401793033655,1.1179800456570972,1.0930427364624227,0.9436423701689889,-0.3255334767644993,-0.02486066273452432,-0.05430451852858025,1.3296,-0.6003999999999999,9.137513299999998,0.2940243471653989,0.5535511708343474,0.06599526234103559,nan,nan,nan
15.940797334999843,1526410.5563179192,-4463089.064733304,4278826.239927829,0.3471327511966941,1.337747418434222,1.115115822510527,0.9397862825061971,-0.3371527964589596,-0.025442734836255892,-0.04982371778468919,1.0096,1.0796,7.947513299999999,0.33220342455277485,-0.038769944061228204,-0.105265170510908,nan,nan,nan
16.049927752000258,1526410.5835085239,-4463088.9599487195,4278826.3272738755,0.3975675753368746,1.5632404306684116,1.137295087019191,0.9389909054266657,-0.34069330965772804,-0.025673073870015606,-0.039560613181410936,2.4295999999999998,1.1096,8.067513299999998,0.09876563709853328,-0.08676649849107226,-0.24489151067045437,nan,nan,nan
16.12391804300023,1526410.6250915907,-4463088.796443607,4278826.446227786,0.3416197978823676,1.4322807348235402,1.2146210292813828,0.9435926748263905,-0.328392865973304,-0.024536634374536518,-0.03448106323966695,0.8996,-1.5804,10.937513299999999,-0.24920938251783617,-0.0464057595387034,-0.09326603190344698,nan,nan,nan
16.200739335000435,1526410.651388515,-4463088.686190694,4278826.539725872,0.3206360572183926,1.3169295178931044,1.2753564628983312,0.9488381055064989,-0.313410110727985,-0.032887084743927306,-0.01996978332647051,1.2096,-2.0303999999999998,11.0975133,-0.3953807073723613,0.09103891905585006,-0.44124105151981646,nan,nan,nan
16.28417708500001,1526410.6749358135,-4463088.589476267,4278826.6333872015,0.30783907193177495,1.3003176976961526,1.3759605854526646,0.9477041190613535,-0.31538883791846933,-0.04499183658435033,-0.019039927208334702,1.3496,-0.9604,10.7575133,0.06822237518863251,0.30484175242515543,-0.12490012459584421,nan,nan,nan
16.360994419000235,1526410.701664813,-4463088.476572499,4278826.752858877,0.2847765441822506,1.2667440647106738,1.4547035820922982,0.9560008326492284,-0.2905097621096403,-0.03914859975449167,-0.01157038404701082,1.0495999999999999,-1.3004,10.5075133,-0.598275232916702,-0.17948711500327102,-0.1499892325932627,nan,nan,nan
16.43546250200052,1526410.7227400215,-4463088.382825679,4278826.860515852,0.32367312567073503,1.4358017643906757,1.5455695764717245,0.9496596322781716,-0.3108612021753854,-0.03887648272327287,0.0007179492878170474,2.1196,0.5696,9.2575133,0.588548658439442,-0.10312896022851911,-0.29179723431780197,nan,nan,nan
16.512173502000223,1526410.747593694,-4463088.272575727,4278826.979194473,0.23596482377782438,1.4966085998406446,1.522536264352086,0.9522240194548428,-0.3044106163991132,-0.024313602796803873,0.0035274172655011364,0.5896,-1.1304,8.7375133,-0.17721455087307006,-0.3856541328951012,0.04199698512611355,nan,nan,nan
16.585677834999842,1526410.7650412084,-4463088.161914741,4278827.0917725805,0.2601876714382207,1.5779064503487237,1.5231621875080066,0.9524731862684604,-0.3043507341561568,-0.004605020484446194,0.012010595376725566,2.2996,-0.7904,8.8375133,0.003863359021341615,-0.5776403506144775,-0.056177785298567484,nan,nan,nan
16.669476252000095,1526411.24168049,-4463088.493493554,4278826.454796773,0.9838166990877114,0.807993264318797,0.5622851871545655,0.9332854953515197,-0.35679094851342136,-0.03980023601310616,0.009713135199963422,2.2596,-0.8704,9.9175133,0.2754802238629591,0.13249048879071537,-0.01908953869368798,42.403625,-71.11891,15.9
16.74496920999991,1526411.3228910326,-4463088.426796606,4278826.5012114,0.9555889735275507,0.6957043687286104,0.5246655412751566,0.9406283590871367,-0.3384778983711298,-0.025308194035173072,0.0032401028890560227,1.4096,-1.9304,10.1775133,-0.48046550840708485,-0.28311603934043433,0.2557998184954189,nan,nan,nan
16.82105621000028,1526411.3956404196,-4463088.373832342,4278826.541154407,1.058162873417835,0.76093498863584,0.5706709405697701,0.9375271744541133,-0.3474622743128302,-0.017591931281336202,0.0018137254436064894,3.2596,0.05960000000000003,9.537513299999999,0.24930028508304422,-0.17512379187328522,0.10962849364089383,nan,nan,nan
16.89622296000016,1526411.4745928615,-4463088.317056891,4278826.583733736,1.0003522124173143,0.7317855765579268,0.5420642796712962,0.9375796782813463,-0.3469926934196855,-0.021065239491122392,-0.009832285041161648,1.2896,-1.4104,9.4875133,-0.017953256628587506,0.19575867417550982,0.2601631416254047,nan,nan,nan
16.97238712699982,1526411.550808321,-4463088.261303154,4278826.625032867,1.014036891208617,0.7799142074611604,0.5846792812528295,0.9358397087922198,-0.35142382134652395,-0.02537797397506429,-0.00782919099079398,2.0796,-0.06039999999999998,9.5975133,0.12712723744344115,0.08776642670836068,-0.08563021642597178,nan,nan,nan
17.048505460000342,1526411.6281436752,-4463088.201823127,4278826.669623335,1.0335998573648904,0.816133099694268,0.5684022379978126,0.9376243969031353,-0.34636278524238817,-0.02877617679965794,-0.0080773471332695,2.1196,-0.5803999999999999,9.137513299999998,-0.14012630426819056,0.08558476514336777,-0.028907015736156085,nan,nan,nan
17.124238084999888,1526411.7067415798,-4463088.13976202,4278826.712846275,1.0731108428389413,0.9063725757197398,0.5511077441742014,0.9341752705134562,-0.3553504656449462,-0.03228728659929791,0.00037710454084589526,2.3495999999999997,-0.1404,8.687513299999999,0.26020859290800874,0.010317441151112312,-0.23289237206299335,nan,nan,nan
17.19956358499985,1526411.786875193,-4463088.072079441,4278826.753999764,1.112460442638483,1.0330724479811764,0.5988118911265241,0.9281576460817014,-0.3703942784692168,-0.0361899195611468,-0.004663987162297967,2.3095999999999997,1.0296,8.9975133,0.42928736419495944,0.1510346120931551,0.10199267816341864,nan,nan,nan
17.285130043999743,1526411.8714667785,-4463087.993524525,4278826.7995334705,1.1293327156559423,1.0045758055382743,0.5874201666374044,0.9325970596953639,-0.35935169435570574,-0.031072219640888667,-0.012790689370886425,1.8896,-0.7504,9.8175133,-0.32120421416260225,-0.04858742110369631,0.23725569519297918,nan,nan,nan
17.366324376999728,1526411.9747683473,-4463087.901634637,4278826.853265576,1.0481710477473678,0.9224583600394569,0.5914051840929113,0.9380429334928817,-0.34531627405638127,-0.02309121156683529,-0.017289369595548994,0.7696,-1.2804,10.207513299999999,-0.33429418355255974,-0.12712723744344115,0.14344424789828397,nan,nan,nan
17.44003941899973,1526412.051977675,-4463087.833685432,4278826.896829073,1.0140168863826695,0.9344748026348708,0.6504694137030578,0.9385280444244894,-0.3442185761990092,-0.01515481329162146,-0.021189946180085153,1.3196,-0.3104,10.0675133,-0.03867904149602017,-0.16530631483081712,0.17289667902568828,nan,nan,nan
17.51691666900024,1526412.1299538831,-4463087.761825877,4278826.946849087,1.0605019165887168,0.9509365867290156,0.6430182287711428,0.9409305409558958,-0.3378159542833781,-0.012775418054752236,-0.019154304433479055,2.5195999999999996,-0.9304,9.377513299999999,-0.17830538165556653,-0.0736765291011148,-0.032179508083645454,nan,nan,nan
17.590847002000373,1526412.208289448,-4463087.69158352,4278826.9943465935,1.0814947033923235,0.9116344684185633,0.6507897296138622,0.9437369322489292,-0.32843068370956524,-0.03085360627020337,-0.023279695967066204,2.2196,-1.4904,9.967513299999998,-0.25684519799531136,0.5022821240570139,-0.06490443155853913,nan,nan,nan
17.67438554399996,1526412.034149181,-4463087.74036733,4278826.927250579,0.6781270776011972,0.6996793004684849,0.565922462424467,0.9375830306884415,-0.3463054941776247,-0.02732906852787839,-0.0162384678345844,1.3696,-0.6404,9.977513299999998,0.20675788456568245,0.23721024391037515,-0.23180154128049688,42.403631,-71.118898,15.9
17.84996250200038,1526412.157883582,-4463087.612700405,4278827.030511574,0.6521370054998908,0.6536734711423478,0.4790847424487288,0.9357549214037153,-0.3511102333409492,-0.03286804709400975,0.0020057788923807133,1.5996,-1.4304000000000001,9.3975133,0.06276822127615024,-0.012590005281313264,-0.2067124332830784,nan,nan,nan
17.92636854400007,1526412.2077339129,-4463087.562732624,4278827.06713353,0.6257442279667097,0.6576673177113659,0.4620980118167581,0.936994513373697,-0.3480218776746482,-0.028757881220058176,0.009748814896298752,1.4596,-0.8704,9.387513299999998,-0.0801306112308855,-0.1729421303082923,-0.15435255572324852,nan,nan,nan
18.001076919000297,1526412.2542843032,-4463087.513807409,4278827.101509945,0.6824459347849496,0.6793230554978268,0.4336995873927428,0.9367929861566399,-0.3475082529865498,-0.03240059493664716,0.024639748344110562,2.7096,-0.7904,9.137513299999998,-0.0004999641086442091,-0.04749659032119985,-0.4096069588274192,nan,nan,nan
18.07729512700007,1526412.3063620657,-4463087.461967955,4278827.134605759,0.671095326311234,0.6809651298456284,0.44729158415713804,0.9355110104469667,-0.35045202526985864,-0.04287871162182188,0.01280406041654556,1.8196,-0.6103999999999999,9.687513299999999,0.06713154440613606,0.3681099378099499,0.19689495624061032,nan,nan,nan
18.151695585000198,1526412.356387077,-4463087.411207226,4278827.167947917,0.6805944868808557,0.6138124514734561,0.4669514357889608,0.9373565877114497,-0.3463906833140875,-0.036429759240976606,0.0069996561015207735,1.7996,-1.2104000000000001,10.4275133,-0.12376384253074374,-0.1107647757059943,0.2023491101530926,nan,nan,nan
18.244952627000202,1526412.408267377,-4463087.364417582,4278827.203542653,0.7621350290313275,0.6341914506697108,0.4564898624283759,0.93771830680746,-0.3454194899442737,-0.029620013050328544,0.02219027779085046,2.8495999999999997,-0.6704,9.3975133,-0.011408271933608768,-0.3060234857728599,-0.3125230191852347,nan,nan,nan
18.32047521000004,1526412.4788028146,-4463087.305723296,4278827.245790694,0.6958393001655525,0.645654467937504,0.41192468721029235,0.9410570187261271,-0.3359299544088598,-0.02930930155964747,0.026527695640394092,1.3296,-1.0504,9.0875133,-0.21430279747794956,-0.04531492875620694,-0.08999353955595761,nan,nan,nan
18.395330002000264,1526412.530259783,-4463087.257977471,4278827.276252318,0.660790920499089,0.6185356693823632,0.39050100891988676,0.9425408850575607,-0.32987326181293564,-0.04294213360762799,0.03092385573918516,1.6196,-1.4604000000000001,9.527513299999999,-0.1739420585255807,0.30156926007766605,-0.2394373567579721,nan,nan,nan
18.47102221000023,1526412.5808525789,-4463087.210619906,4278827.306150638,0.5676245377685954,0.5831303820253714,0.4047559856032403,0.9423607387762631,-0.3281955498138592,-0.056701602685045684,0.03207565907553629,0.6496,-1.4004,9.9275133,-0.04958734932098473,0.327749198857581,-0.14889840181076625,nan,nan,nan
18.54530862699994,1526412.6229951298,-4463087.167326144,4278827.336201224,0.5617450909642845,0.6281199173169899,0.4070455104421104,0.941440050434198,-0.32945497130841483,-0.05704722418117618,0.04353927064843184,1.5396,-0.5803999999999999,9.2475133,0.05731406736366795,-0.09003899083856164,-0.29288806510029847,nan,nan,nan
18.621777543999997,1526412.6658542203,-4463087.119402898,4278827.367257304,0.5696506063275512,0.6196335976702219,0.39616947691484955,0.9397628601285688,-0.3311006306580914,-0.06645262768625873,0.05293569619005765,1.8496,-1.1504,9.5675133,0.05840489814616441,0.15539793522314094,-0.3125230191852347,nan,nan,nan
18.70707725200009,1526412.5773718024,-4463087.296630373,4278827.306295383,0.33799104860619045,0.3754801811149916,0.26563036816721436,0.9334275885864852,-0.3475030810598889,-0.061775105580548544,0.06433026042823252,1.3096,-0.0003999999999999837,9.687513299999999,0.12167308353095886,-0.014771666846306175,-0.2339832028454898,42.403635,-71.11889,16.0
18.782528751999962,1526412.6050737035,-4463087.265855846,4278827.32806657,0.3738322564110783,0.3684507209114185,0.28776075440733745,0.9324127914368363,-0.3474766690694888,-0.06799404173270693,0.07240967934564484,2.1696,-0.3403999999999999,9.9175133,0.01040834371632035,0.07467645731840322,-0.23834652597547562,nan,nan,nan
18.857261502000256,1526412.6329909824,-4463087.238340452,4278827.349556147,0.28822373093603015,0.33010059251421686,0.33347401531760335,0.9305305997186577,-0.3526029560974557,-0.07558377431471702,0.06380479571051972,0.5396000000000001,-0.6803999999999999,10.3475133,0.11512809883598012,0.28302513677522634,0.1499892325932627,nan,nan,nan
19.03380875200037,1526412.6838821664,-4463087.1800551405,4278827.408437098,0.26075649621948416,0.3180407193612269,0.314404422754473,0.929585934050882,-0.35556600251905746,-0.09063131248113723,0.035053884550244364,1.3896,-0.5603999999999999,9.627513299999999,-0.0004999641086442091,0.27648015208024757,0.24489151067045437,nan,nan,nan
19.108320168999853,1526412.7033877736,-4463087.156264449,4278827.431955781,0.2804699039504196,0.22937495798942287,0.25807325574106493,0.9304802193404034,-0.3509267392149779,-0.09744547672835477,0.03951410814012743,1.4296,-1.8104,10.0175133,-0.11940051940075791,0.12049135018325437,-0.18598664841564574,nan,nan,nan
19.184411543999886,1526412.7247226047,-4463087.138816317,4278827.45158694,0.2965442686300089,0.2321629775154146,0.2255698230251027,0.9309489919314463,-0.34794119921553907,-0.10103006454232392,0.04542931790813687,1.2396,-0.7604,9.437513299999999,-0.06594981105843156,0.028861564453552067,-0.18489581763314927,nan,nan,nan
19.571608127000218,1526412.8364700116,-4463087.051329848,4278827.536588896,0.413878305825454,0.32427357440079874,0.00427669729890906,0.9265356681368467,-0.345375610541728,-0.1361040842138439,0.0610165725864282,1.3596,-0.7203999999999999,9.197513299999999,-0.0046451210821307435,0.1463440397284204,-0.1442078294460315,nan,nan,nan
19.64667166900017,1526412.8717968361,-4463087.023651288,4278827.536953936,0.4448979586946718,0.2701928321698587,-0.03267783879333369,0.9239777535667524,-0.3528218556862331,-0.139869080851651,0.04710084757542553,0.9096,-1.2304000000000002,9.957513299999999,0.13258139135592342,0.21321196669545311,0.29179723431780197,nan,nan,nan
19.733218418999968,1526413.0025546802,-4463086.771127125,4278827.723336328,0.6646020144235596,0.5044085429057024,0.1911398341020022,0.9360695745120593,-0.32305253878523604,-0.13293210686266146,0.04171168156558198,1.2896,-2.2403999999999997,10.117513299999999,-0.3550199684199924,-0.23839197725807967,0.016907877128695067,42.40364,-71.118883,16.0
19.807326752000336,1526413.0559191203,-4463086.730625473,4278827.738683964,0.7812491909128831,0.5819246405045597,0.22869630147674802,0.9322641442320801,-0.3326992631043433,-0.13527641596242793,0.04353225873031998,1.6496,0.18960000000000005,9.8175133,0.2591177621255123,0.0626773187109422,-0.033270338866141905,nan,nan,nan
19.88596846099972,1526413.1174512184,-4463086.684792409,4278827.756696352,0.812240580961862,0.6475365851846335,0.21573189630065814,0.9347145637422832,-0.3312953070206808,-0.12026814773705875,0.0456911049416856,0.7596,-0.2704,9.197513299999999,-0.02995239523604852,-0.38347247133010826,0.07363107781851079,nan,nan,nan
19.96044150200032,1526413.177933935,-4463086.636574217,4278827.77276062,0.8956922314166574,0.5945972136959138,0.15027788541707948,0.9365398345121491,-0.32500031806043994,-0.12440989236328387,0.04230970185991227,1.9296,-1.8104,9.7475133,-0.19030452026302752,0.12049135018325437,0.02999784651865254,nan,nan,nan
20.036688877000415,1526413.2462592418,-4463086.591217078,4278827.784224137,0.8970238959091184,0.5696141640242088,0.172208988890811,0.9335146182430678,-0.32972798911562107,-0.1329584463317548,0.04638925334668978,0.4696,-1.1304,10.1575133,0.1456713607458809,0.19030452026302752,-0.16089754041822724,nan,nan,nan
20.11126979399978,1526413.3130530235,-4463086.54880273,4278827.797047083,0.9510632201034508,0.581520024073465,0.13922167537814195,0.934142401435842,-0.3288032771680611,-0.13008605195032452,0.04841485730587171,1.2196,-0.9504,9.477513299999998,-0.017953256628587506,-0.09331148318605101,-0.027816184953659628,nan,nan,nan
20.187771001999863,1526413.3855399322,-4463086.504481187,4278827.807658101,1.0547058925210817,0.6091610324332228,0.1017154643265249,0.9321173633407291,-0.33143855308564424,-0.1350158199876914,0.05546562356110616,1.9096,-0.7203999999999999,9.437513299999999,0.09985646788102974,0.07031313418841739,-0.2088940948480713,nan,nan,nan
20.271485127000233,1526413.4638750914,-4463086.459237554,4278827.815212716,1.1622433365896812,0.684152501178898,0.12061707004238209,0.9304368427075084,-0.3351107629535475,-0.1363767594272935,0.05821888293357966,1.7296,0.3496,9.617513299999999,0.11512809883598012,0.021225748976076875,-0.0703585854710214,nan,nan,nan
20.549214126999686,1526413.79810659,-4463086.2624927685,4278827.849899105,1.608893415057951,0.9273213371269873,0.08205204994448612,0.9263604595657958,-0.3530952106050298,-0.11690209533252763,0.05927876402600588,1.9296,0.09960000000000002,9.457513299999999,0.13476305292091634,-0.11730976040097303,0.05399612373357457,nan,nan,nan
20.629846126999837,1526413.927448883,-4463086.187943474,4278827.85649544,1.6430342944692877,0.8858414824739562,0.02442653280423368,0.9319013564469502,-0.34465298798284766,-0.10572830381396586,0.03994628964247078,1.3496,-1.1704,9.6675133,-0.28302513677522634,-0.11621892961847657,0.5274166833370365,nan,nan,nan
20.70502108599976,1526414.0496922084,-4463086.122036019,4278827.858312798,1.722999372373689,0.8239468860135439,-0.03928446298843968,0.9348634750364313,-0.33752108650697843,-0.10182391092313628,0.04173357074374216,2.0496,-1.6804000000000001,9.8375133,-0.19684950495800627,-0.1303997297909305,-0.025634523388666716,nan,nan,nan
20.789228876999914,1526413.3259215732,-4463086.409685953,4278827.961123793,0.4720754767454802,0.3514979558718909,0.10800784831928453,0.9323271630854667,-0.33906821636767687,-0.07557298811023108,0.10043669472403197,1.3196,-0.09039999999999998,9.547513299999999,-0.02449824132356624,-0.03549745171373884,-0.12053680146585838,42.403643,-71.118878,16.0
20.86271754399968,1526413.3636569853,-4463086.381588919,4278827.969757414,0.4199104398687452,0.3045644995984801,0.07999256066540314,0.9355438514232556,-0.3327647175605444,-0.07465582722102844,0.09193395906674715,1.3396,-1.3104,9.687513299999999,-0.18812285869803463,0.028861564453552067,0.2023491101530926,nan,nan,nan
20.941555211000377,1526413.3966870185,-4463086.357631965,4278827.976049606,0.3555663534137291,0.22640091490984893,0.061874455319610194,0.9359407949085512,-0.33040060942167,-0.07872008346311624,0.0930237321120174,1.1596,-1.7504,10.0075133,-0.06704064184092802,0.08122144201338195,-0.06381360077604267,nan,nan,nan
21.015945627000292,1526413.4232094535,-4463086.340744249,4278827.98066495,0.3326712011499744,0.22031266286355944,0.058818175000830836,0.9359484808244459,-0.3296525477721557,-0.07613788659246694,0.09763535103496614,1.4496,-0.8704,9.617513299999999,-0.002681625673637121,-0.10749228335850493,-0.09435686268594344,nan,nan,nan
21.091795502000423,1526413.4485262448,-4463086.323978115,4278827.985141104,0.29227984565341036,0.1972693066610579,0.031998222139352356,0.9390986323696786,-0.32249256095311507,-0.06813961023567355,0.09720751454996288,1.4096,-1.2704,9.4875133,-0.1837595355680488,-0.217666192390647,0.07363107781851079,nan,nan,nan
21.166613461000452,1526413.4702639007,-4463086.309306654,4278827.9875209,0.2864804640847112,0.19727744706197048,0.012558971878007058,0.9386587547145134,-0.32483924068759795,-0.06595819794139762,0.09512479481385083,1.9396,-1.0204,9.357513299999999,0.06494988284114314,-0.030043297801256558,0.07472190860100723,nan,nan,nan
21.26181821099999,1526413.4921456366,-4463086.294238356,4278827.988480169,0.25714124859764176,0.16298323987153696,-0.03687170118654534,0.9398215601854654,-0.3224851362682376,-0.06617316071024466,0.09143240812195574,1.7896,-1.6304,9.3175133,-0.07467645731840322,0.028861564453552067,0.08781187799096471,nan,nan,nan
21.339050835999842,1526413.5168604676,-4463086.278573412,4278827.984936289,0.22012439513994358,0.09207463388268167,-0.04420694768143049,0.9423990473069129,-0.316283304343052,-0.060155356484464594,0.09072067389432205,1.6896,-1.5804,9.937513299999999,-0.12812716566072954,-0.12821806822593762,0.050723631386085204,nan,nan,nan
21.41348733599989,1526413.533347583,-4463086.271677107,4278827.981625229,0.2214302486153289,0.10412634125496889,-0.020180359666741005,0.9408652592227961,-0.32194287741639216,-0.050533032379023665,0.09258380454380209,2.0096,-0.6903999999999999,9.687513299999999,0.18166877656826394,-0.24166446960556903,0.03981532356112064,nan,nan,nan
21.488433626999722,1526413.5499283723,-4463086.263880082,4278827.980114115,0.23849479581735636,0.054663681493970495,-0.05162544873246769,0.941925935292252,-0.3206095006564057,-0.04212171399108009,0.09061369808075288,2.6196,-1.6004,9.5875133,-0.02449824132356624,-0.19912206908820723,0.12271846303085131,nan,nan,nan
21.560390251999706,1526413.5670074418,-4463086.259965511,4278827.976417118,0.22932818155899623,0.03679302706795806,-0.10778166880576509,0.9391156484061627,-0.32857069937384437,-0.03497425528150574,0.09423320251328099,2.3895999999999997,-1.6104,8.9975133,0.2569361005605194,-0.19694040752321434,-0.028907015736156085,nan,nan,nan
21.63692529400032,1526413.5845774584,-4463086.257146607,4278827.968159407,0.25393821436924824,0.03454418267332249,-0.1941095088927459,0.9370365434945742,-0.33423282542279825,-0.03485798399026837,0.09505712006219035,2.9696,-1.3904,8.5875133,0.15767049935334193,0.005954118021126489,-0.01908953869368798,nan,nan,nan
21.715017127000465,1526413.6044382625,-4463086.254444866,4278827.952977876,0.25378129801778326,0.06662787190183372,-0.20733877803017295,0.933262547890936,-0.3474818838075981,-0.0458962167994806,0.07855504420395626,2.4596,-0.4204,9.0675133,0.3082051473378528,0.44119560023721244,0.30379637292526296,nan,nan,nan
21.797008128000016,1526413.7874224524,-4463086.016237468,4278828.205675145,0.5083094347409417,0.4693451147883215,0.18368607703068715,0.9395500386300843,-0.33359112038688277,-0.04945111090480759,0.059306639563044855,2.1696,-0.2004,9.627513299999999,0.08131234457858999,0.08340310357837487,0.13362677085581587,42.403646,-71.118871,16.0
21.878389503000108,1526413.8319892446,-4463085.975086931,4278828.221780097,0.5531908334711313,0.49261539918049513,0.21112575458987934,0.9383897119742554,-0.33672648616840717,-0.06265267089199818,0.045985490759582255,2.4196,-0.36039999999999994,9.6675133,0.04313326719121403,0.389926553459879,0.18707747919814222,nan,nan,nan
21.952023711000038,1526413.8728524374,-4463085.938698335,4278828.2373755695,0.6077787177949896,0.5867358557610167,0.25020043260709657,0.9337632592818792,-0.3477569794034447,-0.07168085005879044,0.04486775215087917,2.2295999999999996,0.5796,9.287513299999999,0.30929597812034926,0.2612085211252972,-0.0409061543436171,nan,nan,nan
22.029055336000056,1526413.9195946723,-4463085.893574436,4278828.25661765,0.670362857529404,0.6499704829490291,0.23847609743550963,0.9342127420549169,-0.34543755264849574,-0.07465621627805438,0.048434489057328674,2.2496,0.02960000000000003,9.107513299999999,-0.05722316479845992,0.03649737993102726,-0.117264309118369,nan,nan,nan
22.102846003000195,1526413.9691583691,-4463085.845518462,4278828.2742495295,0.6914723144495403,0.5940026569103677,0.2596273407864069,0.9387174881311452,-0.3338569500066482,-0.07485689904908129,0.04177869828652392,1.6896,-0.9804,10.4175133,-0.3484749837250137,0.04304236462600599,0.14889840181076625,nan,nan,nan
22.17986808600017,1526414.0224062318,-4463085.799776397,4278828.294242523,0.620734219812364,0.5203170131520215,0.2376920229788243,0.9413907634211701,-0.3262440753591553,-0.06872451216894594,0.051236469650491806,0.5596,-1.9304,9.947513299999999,-0.1837595355680488,-0.2449369619530584,-0.1892591407631351,nan,nan,nan
22.263666753000507,1526414.0679864613,-4463085.761569757,4278828.311696139,0.68360206203006,0.5326188747545668,0.2289658170287477,0.9405224142484522,-0.32952176498356744,-0.06413683805527157,0.05214845404610102,2.4396000000000004,-0.8303999999999999,9.5075133,0.09985646788102974,-0.11949142196596595,0.022362031041177347,nan,nan,nan
22.340108336000412,1526414.1273074262,-4463085.715350667,4278828.331565116,0.7115381790005267,0.4239411155149727,0.1483447247830501,0.9411685611356684,-0.32753209133367023,-0.05387056123044561,0.0634226447404535,2.1996,-2.4404,9.707513299999999,-0.019044087411083963,-0.3114776396853422,-0.16853335589570245,nan,nan,nan
22.414158669000244,1526414.1800679225,-4463085.683915469,4278828.342564864,0.8081711424148768,0.47823447772445316,0.1094972176878567,0.9385069278188974,-0.3324603958723961,-0.049153337425179175,0.07911246165440557,3.2396000000000003,-0.48039999999999994,8.777513299999999,0.17948711500327102,-0.24602779273555486,-0.3539745889201,nan,nan,nan
22.591782043999956,1526414.3234859733,-4463085.599047978,4278828.36199624,0.7846895153853721,0.5099644263781353,0.008023458845773157,0.938786401320798,-0.3350108386971251,-0.043448523790889225,0.06752819402098371,2.0696000000000003,-0.9903999999999998,8.977513299999998,0.024589143888774277,-0.014771666846306175,0.1456259094632769,nan,nan,nan
22.66554083600022,1526414.3813455452,-4463085.561445433,4278828.362587855,0.7763649254012315,0.4617931240173033,-0.01769680939667906,0.9363671994086512,-0.34216978544045157,-0.04476580630310474,0.06428319334022108,2.1395999999999997,-1.5004,9.6775133,0.1980312383057108,0.07903978044838904,0.07472190860100723,nan,nan,nan
22.742108669000118,1526414.440915606,-4463085.526012296,4278828.361229989,0.6819610846303295,0.3320215632578426,-0.04142234802844219,0.9317515850751058,-0.3517422901948776,-0.065852457134871,0.06148007355671922,1.0596,-2.3004,10.367513299999999,0.23621031569308676,0.5611869863118225,-0.11617347833587255,nan,nan,nan
22.822610127999724,1526414.0613649539,-4463085.523583906,4278828.613968172,-0.07881186728053002,0.36825099328272753,0.3728430407780221,0.9367722151286332,-0.34259959485141844,-0.028609609111538738,0.06530563064447052,0.6195999999999999,0.14960000000000004,10.1575133,-0.058313995580956374,-0.2373011464755832,0.30379637292526296,42.403651,-71.118866,16.0
22.900709628000186,1526414.0547136199,-4463085.492505332,4278828.645434291,0.024702517997194445,0.4375198025143627,0.3921945938799952,0.9393576869374481,-0.337072914501809,-0.016634502452477315,0.06092848419000212,3.4795999999999996,0.30960000000000004,9.1475133,-0.12812716566072954,-0.24057363882307256,0.1947132946756174,nan,nan,nan
22.975414919000286,1526414.0565592581,-4463085.459816222,4278828.674736947,-0.03891569586560452,0.38663891166343184,0.34988258158732033,0.9417222717357158,-0.33152943209773456,-0.030011834238060222,0.04844263548046413,1.8196,-1.7604,9.437513299999999,-0.18812285869803463,0.43901393867221955,0.1947132946756174,nan,nan,nan
23.052037628000107,1526414.053581095,-4463085.430227294,4278828.701512965,-0.11581227045140256,0.32532734815204595,0.36652196882256927,0.9402320035662994,-0.3347844697122504,-0.04149398974776153,0.046490726825379615,1.2696,-1.5404,10.1475133,0.07694902144860416,0.30484175242515543,-0.050723631386085204,nan,nan,nan
23.126187169000332,1526414.045002972,-4463085.406130554,4278828.728660957,-0.17416762158760873,0.35488243367293476,0.3571394510246594,0.936275808132344,-0.34425322830482585,-0.04178987756442352,0.05595473704461601,1.2196,-0.7404,9.1675133,0.2863885316879237,-0.06167739049365378,-0.23725569519297918,nan,nan,nan
23.202669668999988,1526414.0317114934,-4463085.379047953,4278828.755915801,-0.15253996282807936,0.4741200196347801,0.33794184937191324,0.9325669331000171,-0.3531552444878649,-0.038525252260400294,0.0641567928918451,2.2596,0.4196000000000001,8.367513299999999,0.265662746820491,-0.13694471448590925,-0.16744252511320598,nan,nan,nan
23.286846253000476,1526414.020368463,-4463085.343791894,4278828.7810455095,-0.22878713454587302,0.4753125132988215,0.3125776574745721,0.9319526154545064,-0.3550443056356798,-0.04725804573883752,0.05634306747843384,1.1996,-0.7804,9.2575133,0.030043297801256558,0.29720593694768027,0.11399181677087966,nan,nan,nan
23.358957378000014,1526414.0015349826,-4463085.304664742,4278828.8067765245,-0.30924379691547466,0.4719128740186358,0.4066931754048535,0.9275073051527158,-0.36611204247470047,-0.04627189430527083,0.0595909690934991,0.8496,0.16960000000000003,10.4275133,0.2940243471653989,-0.030043297801256558,-0.05835944686356039,nan,nan,nan
23.43604387800042,1526413.9776982644,-4463085.2682893835,4278828.8381247055,-0.38825264176733637,0.4188412802914777,0.4215382166420183,0.9244560695452285,-0.3726983981073153,-0.04359318837822972,0.06764993727269224,0.9996,-0.6903999999999999,10.1675133,0.20130373065320015,-0.12712723744344115,-0.16526086354821307,nan,nan,nan
23.50994054400053,1526413.9491161562,-4463085.237455423,4278828.869157207,-0.43638112974424303,0.3881358965843592,0.4181280673081831,0.9322472698764466,-0.3530164753051332,-0.029583894610713538,0.07361514591077416,1.4796,-0.4303999999999999,9.8175133,-0.5404612014443899,-0.4576489645398673,-0.016907877128695067,nan,nan,nan
23.587001918999704,1526413.915503318,-4463085.207558738,4278828.901364079,-0.43131260999825904,0.43042339309697797,0.47092065384851034,0.9307790108997803,-0.3606691554824187,-0.02306730439198792,0.055100754775802396,2.3296,0.48960000000000004,9.6475133,0.19694040752321434,0.02777073367105561,0.5110542215995897,nan,nan,nan
23.660735586000555,1526413.8837010937,-4463085.175822079,4278828.936086746,-0.4650159427101037,0.3037801594167522,0.40138831029500827,0.9301717169748243,-0.3619343845598355,-0.03570179598409419,0.05009451600385865,2.1395999999999997,-2.2704,9.967513299999998,0.015862497628802628,0.37029159937494277,0.0027270769562411402,nan,nan,nan
23.73733525300031,1526413.8479184266,-4463085.1524463985,4278828.966973309,-0.4810076367570514,0.2878736324427916,0.38300494434024274,0.9276476128635217,-0.3659368363308107,-0.04434120807685391,0.059949945686738206,1.9396,-0.6504,9.527513299999999,0.11840059118346949,0.12376384253074374,-0.3190680038802134,nan,nan,nan
23.81144816899996,1526413.8124871838,-4463085.131241495,4278828.995185629,-0.505855728368322,0.3313431750620042,0.3377722190102669,0.9269887671372214,-0.36748950856795204,-0.034729102262521794,0.06661213633182267,1.7196,-0.21039999999999995,8.727513299999998,0.06931320597112897,-0.3049326549903634,-0.07144941625351786,nan,nan,nan
23.89483308600029,1526414.398824672,-4463085.011894877,4278829.027818853,0.3747822015616088,0.5120450924675359,0.2486771269428672,0.9272071124292466,-0.36901042355362795,-0.047811231634207994,0.04280612871729285,1.8596,-0.6903999999999999,8.9875133,0.13912637605090217,-0.2951151779478953,0.020180369476184436,42.403656,-71.11886,16.0
23.970245710999734,1526414.4295101522,-4463084.969970929,4278829.048179417,0.3390164422538878,0.5071348373775832,0.29642372448529425,0.9220815422990217,-0.3823370783283382,-0.04915200699830722,0.03417701934921702,1.3296,0.10960000000000003,10.0675133,0.3365667476827607,0.12812716566072954,0.19362246389312093,nan,nan,nan
24.04928404400016,1526414.456290007,-4463084.929910934,4278829.071594754,0.2075063759420852,0.43275748575832707,0.3231346236098221,0.9278948495024143,-0.36983406469134694,-0.03890956472329853,0.02683205528026069,0.059599999999999986,-0.5503999999999999,10.447513299999999,-0.3484749837250137,-0.18603209969824977,0.2601631416254047,nan,nan,nan
24.123036085999956,1526414.47158474,-4463084.898013551,4278829.095412132,0.2707202086641642,0.4666999078138922,0.3647850281911236,0.9266758228600229,-0.37389058836368116,-0.026853883796117698,0.0275066672204252,2.6596,0.5296000000000001,9.7575133,0.12385474509595178,-0.3060234857728599,0.10744683207590092,nan,nan,nan
24.19996087799973,1526414.4924303428,-4463084.862077405,4278829.123500777,0.24168138784212373,0.4890052007404197,0.3842104500687422,0.9292131458845723,-0.3684420578990843,-0.025021234280282172,0.013686412175104546,1.6796,0.16960000000000003,9.547513299999999,-0.1641245814831126,0.08449393436087133,0.34852043500761765,nan,nan,nan
24.28363975299999,1526414.5102223323,-4463084.826078044,4278829.151785406,0.25296734248385294,0.4960664642950748,0.3912475148251441,0.9261924397353507,-0.3744535029455864,-0.03960724838714605,0.01958073391904643,2.1596,-0.22039999999999996,9.5975133,0.1805779457857675,0.3135683986851271,-0.29179723431780197,nan,nan,nan
24.358259419000206,1526414.531644134,-4463084.7840701025,4278829.184917062,0.21643635753456006,0.5579716739358895,0.4225966370721401,0.9264280444697861,-0.37249411423711754,-0.049494021730180554,0.023012076140953,1.3296,0.5596,9.367513299999999,-0.04631485697349536,0.18485036635054525,-0.16417003276571662,nan,nan,nan
24.432649127999866,1526414.547735645,-4463084.74258628,4278829.216336083,0.22341765718487497,0.6467827301303626,0.3921038844239105,0.9248809239854385,-0.375860772938762,-0.051825446824567266,0.025260234201274614,1.7796,0.37960000000000005,8.547513299999999,0.1009472986635262,0.039769872278516624,-0.07581273938350368,nan,nan,nan
24.508707461000085,1526414.564782794,-4463084.6932356525,4278829.246254279,0.19999556011063513,0.718009024691008,0.35829666804888627,0.9238951809630488,-0.37855189247142473,-0.04855090077563589,0.02754940816395141,1.3596,0.20960000000000004,8.6775133,0.08022151379609353,-0.09876563709853328,-0.020180369476184436,nan,nan,nan
24.582928128000276,1526414.5796404725,-4463084.639894732,4278829.272872154,0.21815393213086318,0.6988097272427298,0.33870063468466954,0.9298517801324778,-0.3644245932909309,-0.04627900760370131,0.020703545618312922,1.9696,-0.4104,9.6675133,-0.41937898458728334,-0.00495418980383807,0.179441663720667,nan,nan,nan
24.659578669999973,1526414.5963454281,-4463084.586383959,4278829.298807872,0.19043023183900373,0.6494680891958706,0.3824135204511116,0.9308240856348123,-0.36134250554088093,-0.045287040754681825,0.03077661105431971,1.2796,-0.5004,10.477513299999998,-0.07140396497091385,-0.12276391431345532,-0.23834652597547562,nan,nan,nan
24.734136545000183,1526414.610496862,-4463084.538120064,4278829.327226153,0.16221998080729758,0.6349502219797554,0.4662769213237238,0.9333013438357561,-0.3557067204614903,-0.04067180609983821,0.027697208491667454,1.2996,0.16960000000000003,10.5675133,-0.16521541226560904,-0.09331148318605101,0.11726430911836902,nan,nan,nan
24.91700625300018,1526414.825922026,-4463084.467466975,4278829.435264338,0.5350785126337845,0.4966432708978682,0.3979984278319543,0.932776678560273,-0.35171765643890335,-0.07274577511154318,0.030502636662462917,2.4696,-1.2304000000000002,9.957513299999999,-0.04631485697349536,0.21757528982543894,-0.15871587885323435,42.403661,-71.118853,16.0
24.99338312800046,1526414.8702516311,-4463084.426321611,4278829.468237281,0.4969358961252119,0.5378080993183318,0.36453953184654636,0.9304964592219754,-0.35582524343771554,-0.07294939999766954,0.04736159947244197,0.9196,-0.5204,9.0175133,0.14130803761589508,-0.13149056057342698,-0.3757912045700291,nan,nan,nan
25.067097670000294,1526414.9068583308,-4463084.386704067,4278829.495091025,0.5025965761432711,0.5947850368458797,0.3093279705753346,0.9327807072142542,-0.35018515101650194,-0.06574828371886365,0.05447638021381731,1.6096,-0.3303999999999999,8.627513299999999,-0.141217135050687,-0.2623902544730017,-0.11835513990086546,nan,nan,nan
25.14440796100007,1526414.9457369614,-4463084.340694148,4278829.519019257,0.48499135527099063,0.6383792877069635,0.295277488669008,0.9309300784264438,-0.35518923807324393,-0.06614646157031669,0.053239462960865555,1.3996,-0.24039999999999997,9.127513299999999,0.13476305292091634,0.031043226018544978,0.03217950808364545,nan,nan,nan
25.25222312799997,1526414.9813596774,-4463084.293805056,4278829.54070745,0.4636702326504248,0.6169099672358598,0.2867052054731179,0.9322663516667798,-0.35290852632548325,-0.060985820015692416,0.05114442208542837,1.3496,-0.7504,9.7475133,-0.06704064184092802,-0.11621892961847657,0.10090184738092219,nan,nan,nan
25.32702058599989,1526415.0317574246,-4463084.22675121,4278829.571870323,0.3857093005738797,0.5341293174952988,0.368623055533246,0.9220713278812862,-0.3793980580996205,-0.06729725608362445,0.036230645727683794,0.8996,-0.6504,10.6575133,0.49800970349223617,0.24157356704036095,0.23507403362798626,nan,nan,nan
25.40557504499975,1526415.0621149004,-4463084.184712251,4278829.600883016,0.46377390299879917,0.4873096122443624,0.34313198588398713,0.9314026691973232,-0.35930581344269513,-0.051341330404359446,0.027431160884048934,2.4596,-0.5204,9.9875133,-0.5611869863118225,-0.3234767782928032,0.3343396348351637,nan,nan,nan
25.479327128000477,1526415.0964337825,-4463084.148651746,4278829.626274497,0.5776152819699253,0.4653600851600722,0.320046621803846,0.9299230029223782,-0.36314902970597296,-0.05531109910035288,0.017512102457996732,3.2295999999999996,-0.7504,9.7375133,0.09440231396854745,0.2012128280879921,0.21543907954305005,nan,nan,nan
25.556198670000413,1526415.140845033,-4463084.112871489,4278829.650882002,0.5366470876565768,0.3755178829126996,0.25542183238520744,0.9291829096060865,-0.3629939625515604,-0.06750194619092342,0.01726242926915167,1.0695999999999999,-1.8804,9.807513299999998,-0.002681625673637121,0.2982967677301767,-0.10962849364089382,nan,nan,nan
25.63018037799975,1526415.180489658,-4463084.08513023,4278829.669751205,0.5229281796416317,0.3655099376398957,0.21042422247174702,0.9245376756070351,-0.3733502934072784,-0.0727767377054447,0.023306475528148192,1.1896,-0.9304,9.3375133,0.31475013203283153,0.08667559592586423,-0.1870774791981422,nan,nan,nan
25.706824128000335,1526415.2204868656,-4463084.057173471,4278829.685845922,0.5375976682125378,0.34643694296116767,0.09499098437952475,0.9260379961812741,-0.36962921645588254,-0.06802306219470138,0.034651631089865506,1.6496,-1.3604,8.8475133,-0.0801306112308855,-0.23075616178060446,-0.2339832028454898,nan,nan,nan
25.780995461000202,1526415.2604169997,-4463084.031441824,4278829.692901389,0.6036432144582053,0.3902258857575123,0.006434941270832661,0.9242674566061757,-0.373397175143771,-0.061658013985038035,0.05002507492823065,2.4596,-0.48039999999999994,8.527513299999999,0.1456713607458809,-0.3049326549903634,-0.31470468075022756,nan,nan,nan
25.85801937799988,1526415.3070709992,-4463084.00128229,4278829.693398728,0.63419105797171,0.45946116203835785,-0.03970356149888554,0.9234514350078876,-0.3741275223439584,-0.059638513484664424,0.060903961059480524,2.0696000000000003,0.22960000000000003,8.6475133,0.04531492875620694,-0.15112551465836319,-0.24052818754046854,nan,nan,nan
25.93816016999972,1526415.63916362,-4463083.799131592,4278829.847973319,1.0200916433737288,0.7090123593157336,0.20980675618902433,0.9298417379177827,-0.35726166718600694,-0.0740631092602976,0.04767703838286131,1.2396,-0.11039999999999997,10.457513299999999,-0.15212544287565158,0.11067387314078626,-0.07908523173099305,42.403666,-71.118841,16.0
26.01712258600037,1526415.7255600695,-4463083.739081938,4278829.8657428585,1.013364618201718,0.6214477463071462,0.3204368450493138,0.9276360588620768,-0.36187818678727596,-0.075765445095866,0.052868876596383244,1.1496,-0.3104,11.3375133,0.12712723744344115,0.002681625673637121,-0.1227184630308513,nan,nan,nan
26.303973086000042,1526416.0063720613,-4463083.566873459,4278829.954538645,1.1146405806248967,0.5856120860245317,0.02879024701797217,0.925342666094198,-0.359330709962051,-0.09353497352090039,0.07663941850670382,1.9696,-1.0104,9.057513299999998,-0.004863287238630033,0.05722316479845992,-0.20780326406557487,nan,nan,nan
26.37800037800025,1526416.1005620696,-4463083.517387725,4278829.956971495,1.1577071935331744,0.6030626858357747,-0.07625657162455735,0.9224982225361839,-0.3643041768403594,-0.09952676237130124,0.0798368353762059,2.0396,-0.7604,8.7375133,0.12930889900843406,0.11940051940075791,-0.1150826475533761,nan,nan,nan
26.45844504500019,1526416.1934509957,-4463083.46900084,4278829.95085303,1.1928385150841216,0.6004523677907274,-0.14381476401981996,0.9176478644621207,-0.3744583766135173,-0.10246124918318887,0.08488235390615996,1.8096,-0.5703999999999999,9.207513299999999,0.2842068701229308,0.05395067245097055,-0.12708178616083712,nan,nan,nan
26.533110086000306,1526416.2823790454,-4463083.42423614,4278829.940131406,1.2371521046447707,0.5326308256286738,-0.2050653276512378,0.9158691696726637,-0.37801197922513735,-0.10492621896273278,0.08532934276282673,1.9896,-0.9104,9.877513299999999,0.1009472986635262,0.06922230340592093,-0.02999784651865254,nan,nan,nan
26.611279335999825,1526416.3792368688,-4463083.382535962,4278829.924076646,1.238963936862372,0.4625846653527407,-0.217706236678256,0.9094862551196313,-0.3929753800965464,-0.10948092667610923,0.08011884695460615,1.2196,-0.5104,10.2675133,0.3878357944600941,0.20666698200047437,0.10417433972841156,nan,nan,nan
26.685500378000143,1526416.4713293172,-4463083.348151947,4278829.907894496,1.3435950216415848,0.4678041634357816,-0.24766032843526142,0.9055375106138401,-0.40444503046926916,-0.11065306981038878,0.06466786604094842,2.3895999999999997,0.5996,9.617513299999999,0.2743893930804627,0.2284835976504035,0.39106283552497945,nan,nan,nan
26.762849878000452,1526416.5751314377,-4463083.312010801,4278829.888761002,1.403298294128546,0.3310035338591574,-0.40945924850680315,0.9099492486490883,-0.39469460977122417,-0.11748966321767883,0.04903783737328477,2.1096,-1.8404,9.8275133,-0.33102169120507036,0.29502427538268733,0.27434394179785865,nan,nan,nan
26.83630454500053,1526416.678437522,-4463083.287643438,4278829.858617994,1.4272373920294033,0.2680079338708451,-0.472069107214709,0.9064910296563493,-0.4009272163445556,-0.12627503513570934,0.03982457036810795,1.0996000000000001,-0.7103999999999999,9.8975133,0.15003468387586671,0.3353850143350562,0.14889840181076625,nan,nan,nan
26.913282878000246,1526416.7883258208,-4463083.267008513,4278829.822271643,1.4635833395600626,0.16935407919432077,-0.5737377247686919,0.9089373061759956,-0.396561064399763,-0.12303987640941885,0.03786139212387832,1.0996000000000001,-1.2104000000000001,9.967513299999998,-0.1313996580082189,-0.06822237518863251,0.0681769239060285,nan,nan,nan
26.993178669999907,1526416.380881721,-4463083.1477358,4278830.252585359,0.6877221740572455,0.35120114896994015,0.008126997753762244,0.9171619522994534,-0.3756989283380041,-0.10250571964866186,0.08459814711914301,1.5196,-0.6204,9.0175133,0.15112551465836319,-0.11621892961847657,-0.09108437033845407,42.403671,-71.11883,16.0
27.071727878000274,1526416.4392512809,-4463083.117928041,4278830.253275128,0.6898214668105449,0.3844568057185116,-0.047366008572084395,0.9170729692697327,-0.37686162034373716,-0.0925148905760285,0.09161595780837589,1.2896,0.009600000000000025,9.0075133,0.06276822127615024,-0.2754802238629591,-0.06054110842855331,nan,nan,nan
27.146025044999988,1526416.4905269467,-4463083.089350678,4278830.249754327,0.7804241491601132,0.4110547680714529,-0.08441861970455045,0.9138101039543741,-0.38454072417741114,-0.08062707656358653,0.10285329572536588,2.6196,0.4296,9.227513299999998,0.27984354699294495,-0.3801999789826189,-0.14562590946327686,nan,nan,nan
27.24234841999987,1526416.5500423193,-4463083.0580035215,4278830.243316539,0.7164524083989995,0.3244167077206418,-0.11419819070351644,0.9175078091549803,-0.37628047792937996,-0.07611437064004199,0.10391835837660164,1.0495999999999999,-0.8103999999999999,10.1475133,-0.2208477821729283,-0.14894385309337027,0.012544553998709244,nan,nan,nan
27.31757283600018,1526416.618323339,-4463083.027085204,4278830.232432956,0.6944574229075298,0.18081887229834726,-0.08945394776923099,0.9250248154611359,-0.3604054007889687,-0.07414920930862938,0.09454593158296747,1.6596,-0.6504,10.877513299999999,-0.3757457532874251,-0.01040834371632035,0.18707747919814222,nan,nan,nan
27.38870304500051,1526416.667715321,-4463083.0142248,4278830.226070711,0.6634886384147587,0.1688079762695071,-0.15609947796009238,0.9252450081175998,-0.359042819655744,-0.0695993527156205,0.10082588588965671,1.5396,-0.9304,9.047513299999999,-0.012499102716105224,-0.18603209969824977,-0.11944597068336192,nan,nan,nan
27.46523662799973,1526416.7184970276,-4463083.001304674,4278830.21412326,0.7005651079173713,0.10299484602486114,-0.22245162363626791,0.9286614693755998,-0.349875313732696,-0.0765196090584982,0.09653957801795836,2.6395999999999997,-1.1604,9.5975133,-0.27975264442773695,0.17721455087307006,0.031088677301148997,nan,nan,nan
27.539768753000317,1526416.7707010666,-4463082.993629803,4278830.197546824,0.6656633514199768,0.03774769350729873,-0.2817576368266965,0.9296775592773964,-0.3429561420667911,-0.08923707441412393,0.10058561279549871,1.5696,-1.5604,9.5975133,-0.20666698200047437,0.2590268595603043,-0.23180154128049688,nan,nan,nan
27.61758900299992,1526416.8220346111,-4463082.990718838,4278830.175818697,0.6487831850270026,0.05762872396852875,-0.3199509845784651,0.9266084709250118,-0.34577949070835995,-0.0956696746042946,0.11260816725859132,1.4396,-0.5903999999999999,9.107513299999999,0.10640145257600847,0.0626773187109422,-0.3485204350076177,nan,nan,nan
27.6959737950001,1526416.8731586724,-4463082.986177699,4278830.150606586,0.6273059461348367,0.0461088942462517,-0.347678362886801,0.925505939205753,-0.3470477654910293,-0.10182709911074724,0.11237369534727419,1.3796,-0.7003999999999999,9.4875133,0.021316651541284908,0.15321627365814802,-0.04854196982109229,nan,nan,nan
27.77680687800057,1526416.9237289676,-4463082.982460628,4278830.12257848,0.6140958548874254,-0.01157900386559868,-0.3790968776792193,0.9230304804391258,-0.350321319304506,-0.10393525275830034,0.12036265704896364,1.4596,-1.0904,9.867513299999999,0.1107647757059943,-0.00495418980383807,-0.20016744858809965,nan,nan,nan
27.85907158700047,1526416.9743941785,-4463082.98341594,4278830.091301566,0.6246665572627164,-0.08720430359573778,-0.420829494697916,0.921743847858962,-0.35297450724225166,-0.10601421698989379,0.12065762522118345,1.8196,-1.1104,9.957513299999999,0.06494988284114314,0.05504150323346701,-0.021271200258680893,nan,nan,nan
27.932052502999795,1526417.0199318496,-4463082.989773061,4278830.0606234465,0.603610235940211,-0.11051853882207752,-0.4231096805689452,0.9169725277528392,-0.36755986498573456,-0.10366890370409101,0.11538582217838049,1.1596,-0.4503999999999999,9.867513299999999,0.4074707485450303,0.05395067245097055,0.18271415606815639,nan,nan,nan
28.015096252999683,1526417.0369726229,-4463082.537722061,4278830.666781519,0.6076803045150385,0.5989659649508454,0.5187726823075538,0.940215946011007,-0.31818026209109285,-0.0814012348770071,0.09016171692864237,2.0796,-0.19039999999999999,9.9175133,-0.3332033527700633,-0.10531062179351201,0.3965169894374617,42.403676,-71.11882,16.0
28.09100421200037,1526417.0867913177,-4463082.488617783,4278830.709311411,0.6767184342510898,0.6346125988614295,0.497395512278865,0.9381803366784529,-0.3216978770459566,-0.07825575794339064,0.1010156853141438,2.5096,-0.6003999999999999,9.217513299999998,0.12494557587844822,-0.14458052996338444,-0.22198406423802877,nan,nan,nan
28.16960092000045,1526417.140017591,-4463082.438703282,4278830.748433309,0.771148993549448,0.6573173842209159,0.5459093049756922,0.939472091371769,-0.3146924672206946,-0.09110189904732162,0.10030595772350423,2.8095999999999997,0.02960000000000003,9.9975133,-0.21212113591295664,0.29175178303519794,-0.09872018581592926,nan,nan,nan
28.253888420000294,1526417.1969424277,-4463082.39018129,4278830.788731355,0.7070413710932809,0.6179519860245262,0.5614959501517175,0.937366859280979,-0.3140384766550502,-0.11666003670827305,0.09546540050648883,0.7896,-1.5004,10.0175133,-0.0801306112308855,0.6953591725588866,-0.10199267816341863,nan,nan,nan
28.32968942000025,1526417.2578922517,-4463082.336911331,4278830.8371345755,0.6321197915283627,0.6588369933547231,0.5393656226729593,0.9373456329236566,-0.31054656852762225,-0.11107927765007833,0.1122737184213479,0.3096,-1.0304,9.057513299999998,-0.017953256628587506,-0.2514819466480371,-0.33433963483516377,nan,nan,nan
28.404337711999688,1526417.3052897789,-4463082.2875104975,4278830.877577221,0.6305533915905137,0.7322105965109609,0.47981196385936004,0.9392718532234984,-0.3024733131754167,-0.10715108382589374,0.12164261732825538,1.4196,-0.7003999999999999,8.437513299999999,-0.17830538165556653,-0.20566705378318598,-0.21980240267303588,nan,nan,nan
28.478882086999874,1526417.3520418182,-4463082.23322114,4278830.913152619,0.5893230205488977,0.8012965014576465,0.4567317798615923,0.9382382911082056,-0.30181525521677466,-0.10567960029693098,0.13209195075635452,0.9296,-0.7203999999999999,8.7475133,0.02677080545376719,-0.12167308353095886,-0.2579814800604119,nan,nan,nan
28.553312170000027,1526417.3959832897,-4463082.17347437,4278830.94720774,0.5381802490111431,0.8014316701920827,0.5169583362733983,0.9384581535456252,-0.29658556272280195,-0.10758191515935633,0.1405682400669893,0.7596,-0.8503999999999999,10.1675133,-0.11612802705326854,-0.03986077484372466,-0.24270984910546145,nan,nan,nan
28.629409295000187,1526417.4369684965,-4463082.112441207,4278830.986576788,0.4779675101667628,0.8251778173055684,0.6254775223227761,0.9389940635677008,-0.29001301785742334,-0.09690098574880206,0.15745728809905266,0.4696,-0.39039999999999997,10.457513299999999,-0.07903978044838904,-0.4205607179349878,-0.34961126579011415,nan,nan,nan
28.703646795000168,1526417.4725717385,-4463082.0509746745,4278831.033167879,0.44244589507494203,0.8237267578329942,0.7090900087675469,0.9414365304017465,-0.28497160738001165,-0.09493378632489725,0.15321885975017496,1.2696,-0.7404,10.4075133,-0.14885295052816222,-0.044224097973710484,0.11944597068336194,nan,nan,nan
28.78025058700041,1526417.5064476824,-4463081.987905898,4278831.087459474,0.46105307096429704,0.825270286465029,0.7118634058546569,0.9408609324648449,-0.28286238607766295,-0.09159157170517293,0.1624209372376632,2.2496,-1.1404,9.547513299999999,-0.011408271933608768,-0.15767049935334193,-0.2088940948480713,nan,nan,nan
28.854740462000336,1526417.5406674254,-4463081.92665365,4278831.140294569,0.5027430923897309,0.8189277841744743,0.7500711644121165,0.9434936088002647,-0.27766906431925076,-0.09582205779429111,0.15342045062488752,2.5796,-0.8403999999999999,9.9975133,-0.19248618182802044,0.1466712889631693,0.1947132946756174,nan,nan,nan
28.930560337000315,1526417.578960487,-4463081.8642773535,4278831.197426177,0.5114193489567427,0.751065447425207,0.7748257631538045,0.9444048269789473,-0.2736483527614502,-0.09868638196911533,0.153222388639541,2.2796000000000003,-1.9103999999999999,10.2575133,-0.11830968861826145,0.05395067245097055,-0.022362031041177347,nan,nan,nan
29.005097045000184,1526417.617044863,-4463081.808347012,4278831.255125902,0.5132030302562606,0.8158541554964172,0.7722259982797139,0.9403362480145908,-0.28006557932095394,-0.09722225982664631,0.1669695921430358,1.8396,-0.7904,8.977513299999998,0.2351194849105903,-0.1009472986635262,-0.33761212718265315,nan,nan,nan
29.087664337000206,1526417.6958762577,-4463081.916302318,4278831.0904234545,0.5169355742023035,0.5880041095166277,0.43132407604981715,0.9360785657092218,-0.2906041620192535,-0.10254741422692032,0.16967665787897107,1.3296,-1.3004,8.807513299999998,-0.04849651853848827,-0.049678251886192765,-0.056177785298567484,42.403681,-71.11881,16.0
29.16418704500029,1526417.7387033792,-4463081.867587305,4278831.126157828,0.49280017755176886,0.5785021740546304,0.4046400235459985,0.9353146022456978,-0.2918858921846246,-0.10302552569311413,0.17139125526690796,1.8596,-1.4104,9.3175133,0.036588282496235296,0.005954118021126489,-0.04199698512611356,nan,nan,nan
29.253383086999747,1526417.77766757,-4463081.821846921,4278831.158151466,0.5015847434818963,0.5829541056369271,0.3915930535753199,0.9335075563691926,-0.29446218887183295,-0.10513364540706421,0.17550663430936336,2.1395999999999997,-1.0104,9.387513299999998,0.0758581906661077,0.0354065491485308,-0.11399181677087965,nan,nan,nan
29.332692420000058,1526417.822487239,-4463081.769756401,4278831.193142705,0.5300806982356425,0.5822325927083697,0.3947451038275156,0.9282734635253305,-0.3042996369496748,-0.11422980659621172,0.1807253709602679,2.2695999999999996,-0.8003999999999999,9.617513299999999,0.21657536160815055,0.20666698200047437,-0.16635169433070954,nan,nan,nan
29.4068848779998,1526417.8618398337,-4463081.726532108,4278831.222448137,0.48693791731130226,0.5808643915354561,0.44742777938171957,0.9265742974170501,-0.31205003328342557,-0.1237606847330845,0.16961173769837487,1.0695999999999999,-0.6003999999999999,10.117513299999999,0.12712723744344115,0.3724732609399357,0.21543907954305005,nan,nan,nan
29.483569920000264,1526417.8991830822,-4463081.681985643,4278831.256761354,0.5366401802214675,0.5784282784850348,0.45720498231739043,0.9272833472279246,-0.31183643866158584,-0.1187547465611568,0.16970839756058592,2.0995999999999997,-0.36039999999999994,9.857513299999999,0.011499174498816806,-0.12494557587844822,0.0409061543436171,nan,nan,nan
29.557715670000107,1526417.93899199,-4463081.639076821,4278831.29067762,0.57069249673441,0.5583723690010499,0.4183999415558425,0.925979235858996,-0.3120520263519489,-0.12033600034390213,0.17522909343375642,2.2896,-0.9604,9.457513299999999,0.02677080545376719,-0.001681697456348703,-0.15653421728824143,nan,nan,nan
29.63414158700016,1526417.9826047625,-4463081.596405562,4278831.322652075,0.4806012456594454,0.5575083447010926,0.41927453854778274,0.9271877870572751,-0.3086644659051122,-0.11593774393155123,0.17778496873515007,0.5696,-1.0904,9.527513299999999,-0.06376814949343866,-0.14676219152837736,-0.031088677301148997,nan,nan,nan
29.70840908700029,1526418.0183205442,-4463081.554974445,4278831.353810376,0.4572203963796606,0.5525598798679326,0.4018486119749462,0.9278562803201245,-0.3031927327709051,-0.11266672089225242,0.18564239932071447,1.5596,-0.9604,9.447513299999999,-0.10194722688081462,-0.17512379187328522,-0.18271415606815636,nan,nan,nan
29.78491441999995,1526418.0532801873,-4463081.512725026,4278831.384536223,0.40156811432384376,0.5511410145410552,0.4358978830373455,0.923471788041434,-0.3092804217804997,-0.12215611943722156,0.19137230843469308,1.0896,-0.7904,9.887513299999998,0.1533071762233561,0.22739276686790705,-0.21762074110804297,nan,nan,nan
29.860276086999875,1526418.0835491703,-4463081.4711816935,4278831.417392879,0.35326970361765975,0.5552397676275849,0.46459502660547514,0.918232294206828,-0.31742126219734934,-0.12277564784202825,0.20253231108746117,1.0096,-0.6003999999999999,9.8275133,0.2754802238629591,-0.018044159193795543,-0.27870726492784453,nan,nan,nan
29.936164962000475,1526418.1102278626,-4463081.429250357,4278831.452478785,0.3775498279133182,0.6018146396033861,0.4789766147032076,0.9136645858652214,-0.32289733436455,-0.1182945398620676,0.2167042648209172,1.7896,0.35960000000000003,9.4275133,0.24166446960556903,-0.18385043813325685,-0.3136138499677311,nan,nan,nan
30.010892711999986,1526418.138564708,-4463081.384081409,4278831.488428175,0.4085406542548391,0.6473471276670995,0.47073782405139825,0.9093137037461333,-0.3294847766791548,-0.11617059420074098,0.22603708482453577,2.0995999999999997,0.4496,9.1775133,0.23948280804057612,-0.08022151379609353,-0.21325741797805714,nan,nan,nan
30.09294121200037,1526418.283124093,-4463081.09588448,4278831.602907371,0.6296056425894778,0.9950000444591038,0.6578920156696967,0.9151258281936329,-0.31204408532874633,-0.11956556325578277,0.2255599344394798,2.0396,0.6396000000000001,9.3975133,-0.08340310357837487,-0.04858742110369631,-0.010362892433716332,42.403688,-71.1188,15.9
30.17017737900005,1526418.3358766248,-4463081.012516784,4278831.658029922,0.6501165119832257,1.0449871664226835,0.6527462367219218,0.9167060748638757,-0.30757127192615064,-0.12056974602921516,0.2247505770684437,2.0096,0.24960000000000004,9.197513299999999,-0.117218857835765,-0.0005908666738522469,0.005999569303730508,nan,nan,nan
30.253418629000407,1526418.3830618646,-4463080.936671963,4278831.705406027,0.6954790202855694,1.0944939239360134,0.6305992249405178,0.9198904597956328,-0.2958824716649577,-0.12072367314888527,0.22733433580655465,2.3996000000000004,0.27960000000000007,8.9875133,-0.31465922946762354,-0.1009472986635262,-0.08563021642597178,nan,nan,nan
30.330552629000522,1526418.4438576847,-4463080.840995955,4278831.760530331,0.7658563506875161,1.1558613507847597,0.6588266821717425,0.9246816048844166,-0.28494240570256324,-0.12727861574457122,0.21810985661293023,2.3895999999999997,0.49960000000000004,9.477513299999998,-0.32229504494509875,0.13030882722572246,0.14453507868078042,nan,nan,nan
30.4040744619997,1526418.5004062515,-4463080.755650573,4278831.809176144,0.7959753754494805,1.1490630747064636,0.6913870578837809,0.932837528605899,-0.26908622456797177,-0.13381407330163878,0.19874743599696873,2.1596,-0.5204,10.027513299999999,-0.5655503094418084,0.191395351045524,0.428151082129859,nan,nan,nan
30.482210170000144,1526418.5622979137,-4463080.666304313,4278831.862935463,0.8292650821013987,1.1613194109394231,0.7207651027005058,0.9371125239530539,-0.259774901153555,-0.13850333618774038,0.18749385217285194,1.9596,-0.8303999999999999,9.8375133,-0.31575006025012,0.12812716566072954,0.22743821815051107,nan,nan,nan
30.55478571200001,1526418.622553939,-4463080.581920569,4278831.915307667,0.8579342647716972,1.1764669446459552,0.6812108055973671,0.9370869611687459,-0.2525385680244483,-0.13816885923130584,0.19748839399609744,2.1296,-1.4804000000000002,9.037513299999999,-0.1466712889631693,-0.11730976040097303,-0.28307058805783036,nan,nan,nan
30.631774045000384,1526418.6886434748,-4463080.491293399,4278831.967783606,0.8980694521629515,1.1799382573305848,0.6991368248842063,0.9363959218280122,-0.25854657154890254,-0.14990063836334233,0.18397322386475057,2.1196,-1.2804,9.7575133,0.04204243640871757,0.4073798459798223,0.2699806186678728,nan,nan,nan
30.7050965870003,1526418.754693939,-4463080.404512282,4278832.019203139,0.8441978106876054,1.1514375564575032,0.7219727748501301,0.9358538837495738,-0.2582094469867205,-0.16084715139000724,0.1778583262153422,0.7596,-2.1304,9.887513299999998,-0.08449393436087133,0.32229504494509875,0.07472190860100723,nan,nan,nan
30.78249287900053,1526418.8195948459,-4463080.315991155,4278832.074707532,0.8364987393269498,1.2084755473734812,0.7304210601572426,0.9323120473377258,-0.26435348849387463,-0.15344911149746693,0.19329989717391677,0.8696,-1.1104,9.2475133,0.2722077315154698,-0.24057363882307256,-0.3168863423152205,nan,nan,nan
30.85652529500021,1526418.8816842441,-4463080.226291654,4278832.128923279,0.8799811502671889,1.2931573879580573,0.7551071896660464,0.934472109473756,-0.26049578113197125,-0.14299846395184923,0.19610013893997041,1.4696,-0.18039999999999998,9.3375133,-0.04631485697349536,-0.3114776396853422,-0.000545415391248228,nan,nan,nan
30.933946504000232,1526418.949896056,-4463080.126052451,4278832.187455475,0.8930330208283599,1.3586245096770884,0.7879663594466758,0.9396060261458692,-0.2541249254174312,-0.12995973527180565,0.18886901724948707,1.3696,-0.5903999999999999,9.467513299999998,-0.14885295052816222,-0.3169317935978245,0.26452646475539054,nan,nan,nan
31.00731704500049,1526419.0152497012,-4463080.026626045,4278832.245120167,0.8949396446674427,1.3795534444259547,0.8216879608217635,0.9427962843554323,-0.2518690450821089,-0.11668122488643104,0.1846148494860883,1.6096,-1.2204000000000002,9.727513299999998,-0.026679902888559155,-0.33438508611776774,0.20998492563056778,nan,nan,nan
31.084415962000094,1526419.0846402633,-4463079.9196601845,4278832.308831044,0.8781722100049977,1.3981316730128648,0.8630301156708914,0.9430544059679127,-0.2569766377659001,-0.1029830293860249,0.18440686332745235,1.5996,-1.3704,9.7375133,0.18712293048074624,-0.3082051473378528,0.11071932442339029,nan,nan,nan
31.164157420000265,1526418.3669550682,-4463080.799138682,4278831.833865204,-0.3790707650228572,-0.01550810522240642,0.07546836616544794,0.9252650234175009,-0.31219643720842877,-0.0806965434622546,0.19976508569960713,1.1896,-1.4404000000000001,10.107513299999999,-0.11067387314078626,0.028861564453552067,0.8077601944386257,42.403691,-71.118798,15.9
31.25216575400009,1526418.3348423727,-4463080.800452439,4278831.84025845,-0.48152696838861786,-0.137349149717921,-0.007124225219763247,0.9310092679324743,-0.3000794773536829,-0.06328616822858424,0.19791137350509716,2.1296,-2.4604,9.547513299999999,-0.2284835976504035,-0.4347415181074417,0.17289667902568828,nan,nan,nan
31.332626045000325,1526418.2912472284,-4463080.812887373,4278831.839613457,-0.6089817177998008,-0.17929595845228252,-0.008090495574581913,0.9342325203608625,-0.30154440429159834,-0.06531716659948276,0.1789252314369966,1.7096,-1.5204,9.627513299999999,-0.026679902888559155,0.16957873539559487,0.39324449708997233,nan,nan,nan
31.406849670000156,1526418.2461173947,-4463080.826174467,4278831.839013894,-0.7359673108068101,-0.24172040548369222,-0.01702990438371449,0.9325603802601404,-0.31044369480956874,-0.06984374635507465,0.17052184954980165,1.3596,-2.0604,9.777513299999999,0.20130373065320015,0.2284835976504035,0.18271415606815639,nan,nan,nan
31.485454628999832,1526418.1881596008,-4463080.84521007,4278831.83767278,-0.8049795395353148,-0.2830145022134132,-0.026519609828755175,0.9285578459683161,-0.3209505884721841,-0.07357922898158605,0.17133926598788252,1.8596,-1.3904,9.6575133,0.265662746820491,0.1346721503557083,-0.04745113903859584,nan,nan,nan
31.55957612900056,1526418.128535437,-4463080.866172718,4278831.835708495,-0.8399887186515633,-0.2612072803648562,-0.04567813422569239,0.9232033980519935,-0.34140309534663993,-0.06806078629930137,0.1628101416928862,1.9496,-0.5104,9.0975133,0.5678228735720094,0.04086070306101308,0.27761643414534803,nan,nan,nan
