# t [sec],r_ecef_X,r_ecef_Y,r_ecef_Z,v_ecef_X,v_ecef_Y,v_ecef_Z,q_e2b_scalar,q_e2b_i,q_e2b_j,q_e2b_k,accel_X [m/s^2],accel_Y [m/s^2],accel_Z [m/s^2],gyro_X [rad/s],gyro_Y [rad/s],gyro_Z [rad/s],gps_lat [deg],gps_long [deg],gps_alt [m]
0.0,1526841.5678953473,-4463004.740116092,4278796.415584201,0.0,0.0,0.0,0.901797015,-0.39979036,-0.066508461,-0.150021455,0.0,0.0,0.0,0.0,0.0,0.0,0.0,0.0,0.0
0.017389765000189072,1526841.5678953473,-4463004.740116092,4278796.415584201,-0.00011125628501024859,0.0022944647840361793,-0.00452906505603877,0.9017970726513641,-0.39979038555836766,-0.06650830736539509,-0.15002110845030303,0.06,-0.14,9.36,0.0,0.0,0.0,nan,nan,nan
0.036043251000592136,1526841.5678931423,-4463004.740070619,4278796.415494441,0.00010023156761880536,0.005991305876154304,-0.012659882738832728,0.9017971810563994,-0.39979043361717403,-0.06650801847679776,-0.15002045681159235,0.07,-0.15,9.4,0.0,0.0,0.0,nan,nan,nan
0.3594237420002173,1526841.5679255417,-4463004.738133957,4278796.411402192,0.001292986983226177,0.07287244636259498,-0.1472205273923513,0.9017989490919563,-0.39979121743388807,-0.06650330665649457,-0.1500098284775709,0.07,-0.14,9.38,0.0,0.0,0.0,nan,nan,nan
0.6805685680001261,1526841.568340661,-4463004.714737933,4278796.364136386,-0.0022489544469760786,0.13312424082195512,-0.28562724411924095,0.9018007050197678,-0.3997919958829197,-0.06649862676378857,-0.14999927216182388,0.05,-0.16,9.38,0.0,0.0,0.0,nan,nan,nan
0.8994392650001828,1526841.567847547,-4463004.685548623,4278796.301508706,0.0010962701784071466,0.17763943744273863,-0.3754300438491072,0.9018019041571055,-0.3997925274920742,-0.06649543063261712,-0.1499920627294855,0.08,-0.14,9.39,0.0,0.0,0.0,nan,nan,nan
0.9138230349999503,1526841.5678633212,-4463004.682992565,4278796.296106636,0.0008714174089362384,0.18052132229713008,-0.38141990964237976,0.9018019828476103,-0.3997925623776469,-0.0664952208886733,-0.14999158961537026,0.05,-0.14,9.38,0.0,0.0,0.0,nan,nan,nan
1.239195414000278,1526841.568146787,-4463004.624270301,4278796.1720335325,-0.00040472186385711456,0.24458625323341426,-0.5177117270504552,0.9018037617381646,-0.39979335100666696,-0.06649047920099607,-0.14998089391026778,0.06,-0.1466666666666667,9.383333333333335,0.0,0.0,0.0,nan,nan,nan
1.254822571000659,1526841.5681404567,-4463004.620444781,4278796.163936117,-0.0005375667935345191,0.2478679492906125,-0.5241067790003099,0.9018038472679043,-0.39979338892425254,-0.0664902512100793,-0.14998037963691663,0.06,-0.13,9.38,0.0,0.0,0.0,nan,nan,nan
1.2705802630007383,1526841.5681319158,-4463004.616506578,4278796.1556089455,-0.0007107342319117374,0.2513129364402332,-0.5307097266167298,0.9018039341509265,-0.39979342744178387,-0.06649001961098529,-0.14997985722469126,0.06,-0.13,9.37,0.0,0.0,0.0,nan,nan,nan
1.5956398270000136,1526841.5679011703,-4463004.534915843,4278795.98330983,-0.007353535556373116,0.31071300410942715,-0.6614984214830226,0.9018057094315138,-0.3997942144704105,-0.066485287165699,-0.14996918236741646,0.04,-0.14,9.4,0.0,0.0,0.0,nan,nan,nan
1.6125583279999773,1526841.5677777014,-4463004.529698839,4278795.97220299,-0.007458614207942166,0.3141171984115184,-0.6682507880471973,0.901805801240763,-0.39979425517186795,-0.06648504241624116,-0.1499686302922476,0.06,-0.13,9.39,0.0,0.0,0.0,nan,nan,nan
1.633340569000211,1526841.567620949,-4463004.523097254,4278795.958158824,-0.0074532795911021535,0.3179775355878663,-0.6771698214750762,0.9018059161564806,-0.3997943061170312,-0.06648473606715753,-0.14996793926835905,0.06,-0.16,9.39,0.0,0.0,0.0,nan,nan,nan
1.6506060920000891,1526841.5674897998,-4463004.517502068,4278795.946243227,-0.007360623636751856,0.3209512684098274,-0.6841525358153622,0.9018060123707047,-0.39979434877133,-0.06648447957250002,-0.14996736069984004,0.06,-0.15,9.42,0.0,0.0,0.0,nan,nan,nan
1.666314661000797,1526841.567374285,-4463004.512465183,4278795.935506403,-0.007534511016259439,0.3243530075471437,-0.6906745752351976,0.9018060981816002,-0.3997943868135594,-0.06648425081091083,-0.1499668446881026,0.06,-0.13,9.37,0.0,0.0,0.0,nan,nan,nan
1.6848506120004458,1526841.5672361946,-4463004.506520534,4278795.922847918,-0.007570146177122837,0.3278357719341615,-0.6983167946213552,0.9018061983950882,-0.39979443124083724,-0.06648398365270758,-0.14996624206609285,0.06,-0.15,9.39,0.0,0.0,0.0,nan,nan,nan
1.7028088460001527,1526841.5671022828,-4463004.500721297,4278795.910495074,-0.0076815749103398764,0.331421975216584,-0.7054307138033187,0.9018062951182959,-0.3997944741207819,-0.06648372579816432,-0.1499656604301139,0.06,-0.13,9.39,0.0,0.0,0.0,nan,nan,nan
1.7212905500000488,1526841.5669609543,-4463004.494623671,4278795.897516294,-0.007275372111886204,0.3353304771416902,-0.7128297292913619,0.9018063957173647,-0.3997945187189978,-0.06648345760986668,-0.14996505548454622,0.09,-0.13,9.39,0.0,0.0,0.0,nan,nan,nan
2.0460104270005104,1526841.5645961924,-4463004.385629005,4278795.665820567,-0.005619505072246601,0.40042415723845226,-0.850544831436429,0.9018081728929581,-0.39979530658773066,-0.06647871963222862,-0.14995436814808535,0.07,-0.15,9.38,0.0,0.0,0.0,nan,nan,nan
2.063709925000694,1526841.564495328,-4463004.378441798,4278795.65055415,-0.005694182984179091,0.4033863615092949,-0.8574140317656463,0.9018082710274511,-0.3997953500933353,-0.06647845799404117,-0.1499537779774358,0.05,-0.14,9.43,0.0,0.0,0.0,nan,nan,nan
2.0784259670008396,1526841.5644133398,-4463004.372633599,4278795.638208588,-0.005483608649204448,0.4063061914926327,-0.863311215853288,0.9018083497502535,-0.3997953849932263,-0.0664782481089565,-0.14995330454495273,0.08,-0.14,9.39,0.0,0.0,0.0,nan,nan,nan
2.096614688000045,1526841.5643141489,-4463004.36528407,4278795.6225924585,-0.005689268960848738,0.4096718257901373,-0.8705982549760718,0.9018084486476168,-0.3997954288370314,-0.06647798443494042,-0.14995270978213596,0.05,-0.14,9.4,0.0,0.0,0.0,nan,nan,nan
2.1141777360007836,1526841.5642123611,-4463004.3579545515,4278795.607016414,-0.005887111124649708,0.413536796929545,-0.8777808741215107,0.9018085464650725,-0.399795472202085,-0.06647772363905013,-0.14995212151143483,0.06,-0.12,9.38,0.0,0.0,0.0,nan,nan,nan
2.1348693570007526,1526841.5640900454,-4463004.349362553,4278795.588778879,-0.006415237556767289,0.4176129325525106,-0.8861364234085944,0.9018086600590185,-0.39979552256127215,-0.06647742077936981,-0.1499514383585052,0.04,-0.13,9.39,0.0,0.0,0.0,nan,nan,nan
2.4573359440000786,1526841.5620243505,-4463004.214891942,4278795.303444548,-0.006410617036172711,0.47672999178896375,-1.0227882269047979,0.9018104204626907,-0.3997963029945707,-0.06647272707954353,-0.14994085089838574,0.06,-0.16,9.39,0.0,0.0,0.0,nan,nan,nan
2.475695529999939,1526841.56190428,-4463004.205962818,4278795.284287785,-0.0064945191161825955,0.480405692077959,-1.0304593925064234,0.9018105228577465,-0.399796348388995,-0.06647245405687528,-0.14994023504805043,0.06,-0.14,9.39,0.0,0.0,0.0,nan,nan,nan
2.4955292410004404,1526841.5617761428,-4463004.19648439,4278795.26395677,-0.006632267214615364,0.48381172510708703,-1.0384214033129473,0.9018106307198674,-0.39979639620711316,-0.06647216645576583,-0.1499395863134936,0.05,-0.15,9.41,0.0,0.0,0.0,nan,nan,nan
2.5103523190000487,1526841.561682447,-4463004.189649465,4278795.24928674,-0.006669635186814793,0.48607097088433604,-1.0443317857853922,0.901810707951736,-0.39979643044603397,-0.06647196052568002,-0.14993912180220154,0.05,-0.17,9.41,0.0,0.0,0.0,nan,nan,nan
2.5277958740007307,1526841.561560496,-4463004.180761896,4278795.230191648,-0.0062768035538723,0.48996479396147924,-1.0519432966612414,0.9018108079104982,-0.39979647476038505,-0.06647169399591678,-0.149938520597748,0.09,-0.14,9.38,0.0,0.0,0.0,nan,nan,nan
2.545703319000495,1526841.5614481736,-4463004.171994064,4278795.211367311,-0.0065795417184014715,0.4930194910757586,-1.0596702370013698,0.9018109057385151,-0.39979651813012074,-0.06647143314650328,-0.14993793220631588,0.04,-0.17,9.39,0.0,0.0,0.0,nan,nan,nan
2.559858768000595,1526841.561354898,-4463004.165004716,4278795.196344774,-0.006884289757949864,0.49562891011394516,-1.065781808944319,0.9018109832394443,-0.39979655248832324,-0.0664712264966537,-0.14993746607147085,0.04,-0.16,9.38,0.0,0.0,0.0,nan,nan,nan
2.57800136700007,1526841.5612297684,-4463004.155996117,4278795.176973021,-0.007045556952653749,0.4994265756372389,-1.0729567666143272,0.9018110826044485,-0.3997965965394458,-0.06647096154708151,-0.1499368684314144,0.06,-0.12,9.39,0.0,0.0,0.0,nan,nan,nan
2.595816984000521,1526841.5611051065,-4463004.14715941,4278795.157988438,-0.007091336541300321,0.5027977804410925,-1.0805845661167968,0.9018111793319449,-0.3997966394212918,-0.06647070362919025,-0.14993628665254297,0.06,-0.16,9.38,0.0,0.0,0.0,nan,nan,nan
2.9220639420000225,1526841.5588111223,-4463003.984508817,4278794.808428979,-0.011663662650266728,0.5753471478918711,-1.2217647351817629,0.901812947718349,-0.39979742339354557,-0.066465988154846,-0.14992565007619343,0.06,-0.14,9.35,0.0,0.0,0.0,nan,nan,nan
3.2506259780002438,1526841.554947941,-4463003.793945157,4278794.4037620565,-0.01393668113183786,0.6424262092973191,-1.3549654171818544,0.9018147581986714,-0.39979822602714166,-0.06646116007916643,-0.14991475950785652,0.06,-0.13,9.39,0.0,0.0,0.0,nan,nan,nan
3.5717400180001277,1526841.55047291,-4463003.587663814,4278793.968686275,-0.019371549218793895,0.706822121161535,-1.493168392679072,0.9018165132479687,-0.3997990040867049,-0.06645647947940811,-0.1499042015972294,0.05,-0.15,9.37,0.0,0.0,0.0,nan,nan,nan
3.8930661730000793,1526841.5442530648,-4463003.3607163355,4278793.489257586,-0.030785139101675553,0.7686980410786527,-1.6222941860302322,0.9018182680869166,-0.3997997820530146,-0.06645179910190609,-0.1498936441879402,0.03,-0.13,9.39,0.0,0.0,0.0,nan,nan,nan
4.214817762000166,1526841.5343445074,-4463003.113301871,4278792.967103208,-0.036255167152949276,0.8330019774835612,-1.756280316888909,0.9018200270661825,-0.3998005618548363,-0.06644710734166864,-0.14988306110290228,0.05,-0.14,9.38,0.0,0.0,0.0,nan,nan,nan
4.232800787000087,1526841.5336966324,-4463003.098416239,4278792.935718718,-0.03638838585607175,0.8366172613841019,-1.7634668718179953,0.9018201247216295,-0.3998006051480672,-0.06644684685338569,-0.1498824735260632,0.06,-0.13,9.39,0.0,0.0,0.0,nan,nan,nan
4.556324068000322,1526841.521940933,-4463002.828137119,4278792.36600985,-0.03584732040000228,0.8933396469842636,-1.8938388556878065,0.9018218901278728,-0.39980138779913726,-0.06644213758904753,-0.14987185095746752,0.06,-0.15,9.41,0.0,0.0,0.0,nan,nan,nan
4.5735718840005575,1526841.52129721,-4463002.812095098,4278792.332001505,-0.03598805090053864,0.8969834297525926,-1.901314263295545,0.901821988254123,-0.39980143130108753,-0.06644187582481266,-0.14987126050249594,0.06,-0.14,9.38,0.0,0.0,0.0,nan,nan,nan
4.588119103000281,1526841.5207734709,-4463002.799041177,4278792.304331422,-0.03602737698615808,0.8992674972646838,-1.9065806395372822,0.9018220677780369,-0.3998014665561324,-0.06644166368389465,-0.14987078198158657,0.05,-0.13,9.45,0.0,0.0,0.0,nan,nan,nan
4.911397107000084,1526841.5091291026,-4463002.508389934,4278791.688107623,-0.03700246801513949,0.9569463102305954,-2.033893823499521,0.9018238338499571,-0.3998022495023145,-0.06643695226609271,-0.14986015455547705,0.05666666666666662,-0.14,9.41333333333334,0.0,0.0,0.0,nan,nan,nan
4.929628326000056,1526841.5084745598,-4463002.491462352,4278791.652129738,-0.03681320341425524,0.9606606926118016,-2.0415074651964633,0.9018239305031518,-0.3998022923512205,-0.06643669441074887,-0.14985957291769222,0.08,-0.15,9.37,0.0,0.0,0.0,nan,nan,nan
5.358750135000264,1526841.4926635958,-4463002.078866593,4278790.7753193,-0.038290909179768996,1.0420431450567755,-2.2205981815132616,0.9018262771205605,-0.39980333266850315,-0.06643043369327199,-0.14984545077544648,0.06,-0.15,9.39,0.0,0.0,0.0,nan,nan,nan
5.680338069000754,1526841.4803525747,-4463001.743836282,4278790.061368345,-0.044669820815542195,1.1082429510266754,-2.35205804400981,0.9018280336286861,-0.3998041113748033,-0.06642574697601727,-0.1498348790657373,0.05,-0.13,9.38,0.0,0.0,0.0,nan,nan,nan
5.700437849000082,1526841.4794391545,-4463001.7211746415,4278790.013272851,-0.044740528437305534,1.1127278380593988,-2.360556238470345,0.9018281453386287,-0.3998041608987621,-0.06642544889991168,-0.14983420670299633,0.07,-0.13,9.37,0.0,0.0,0.0,nan,nan,nan
5.717834282000695,1526841.4786537436,-4463001.701640929,4278789.971833763,-0.04472696452684911,1.1158173606069448,-2.3678885415714626,0.9018282412410329,-0.399804203414823,-0.06642519300202969,-0.14983362948060874,0.06,-0.16,9.4,0.0,0.0,0.0,nan,nan,nan
5.731820866000817,1526841.4780261796,-4463001.685984898,4278789.938609923,-0.044681172911366515,1.1186179757773735,-2.373833483105764,0.9018283178925431,-0.39980423739645565,-0.06642498847088019,-0.14983316812486197,0.07,-0.15,9.38,0.0,0.0,0.0,nan,nan,nan
5.850643561000652,1526841.472719399,-4463001.553126698,4278789.656669841,-0.04564939711758213,1.1426169019857886,-2.4215986491345447,0.9018289667247432,-0.3998045250408534,-0.06642325714970365,-0.14982926282742307,0.06,-0.13,9.39,0.0,0.0,0.0,nan,nan,nan
6.171653654000693,1526841.4580749327,-4463001.186571697,4278788.879813577,-0.051389871277392626,1.2066066188915694,-2.5551460454356887,0.9018307191656535,-0.3998053019440499,-0.06641858076581539,-0.1498187144264275,0.05,-0.14,9.38,0.0,0.0,0.0,nan,nan,nan
6.492737868000404,1526841.4415804578,-4463000.799290272,4278788.05969492,-0.05491224157214229,1.2739010137188345,-2.690917523753859,0.9018324723809646,-0.3998060791905587,-0.06641390197685082,-0.1498081606003621,0.06,-0.14,9.37,0.0,0.0,0.0,nan,nan,nan
6.510681645000659,1526841.44057239,-4463000.775904259,4278788.010295607,-0.05481485824715546,1.2774342216293004,-2.6985725171387305,0.9018325726527239,-0.3998061236436697,-0.06641363437232412,-0.1498075569715918,0.07,-0.15,9.39,0.0,0.0,0.0,nan,nan,nan
6.52518820000023,1526841.439793394,-4463000.757750125,4278787.971945103,-0.054778319865666766,1.279843151711921,-2.7046137026708204,0.9018326502762831,-0.39980615805623726,-0.06641342721038467,-0.14980708968163858,0.06,-0.17,9.4,0.0,0.0,0.0,nan,nan,nan
6.543048647999967,1526841.4387979866,-4463000.734493383,4278787.922798064,-0.05518989758353165,1.2831402570906314,-2.711677691324769,0.9018327495300824,-0.3998062020580598,-0.06641316232064168,-0.14980649217653733,0.04,-0.13,9.41,0.0,0.0,0.0,nan,nan,nan
6.661658148000242,1526841.4322703844,-4463000.582729571,4278787.602073541,-0.055427711295305375,1.3047690284253255,-2.7618736251261957,0.9018333955451066,-0.3998064884535293,-0.06641143820138203,-0.1498026031242804,0.06,-0.16,9.39,0.0,0.0,0.0,nan,nan,nan
6.675692687000264,1526841.43147488,-4463000.564003388,4278787.562434841,-0.05562432438816704,1.3074380890622228,-2.767858301495537,0.9018334739345898,-0.39980652320565113,-0.0664112289882303,-0.14980213120745947,0.05,-0.15,9.39,0.0,0.0,0.0,nan,nan,nan
6.894579600000725,1526841.4193033765,-4463000.277914745,4278786.956782586,-0.05548132747620298,1.3524704832065715,-2.8589502303203576,0.9018346690519916,-0.3998070530326623,-0.06640803926375172,-0.1497949362265363,0.07,-0.14,9.38,0.0,0.0,0.0,nan,nan,nan
7.2154406610006845,1526841.4015114955,-4462999.84420137,4278786.039967787,-0.055231782841499474,1.418244439642062,-2.9879190987821804,0.9018364204320009,-0.39980782946553345,-0.06640336461036397,-0.14978439172898705,0.07,-0.13,9.39,0.0,0.0,0.0,nan,nan,nan
7.233820705000653,1526841.4005047437,-4462999.818349949,4278785.985504712,-0.055357295931544176,1.4218193543710478,-2.9956423257078706,0.9018365199777086,-0.3998078735967667,-0.06640309890020067,-0.14978379237328443,0.06,-0.15,9.38,0.0,0.0,0.0,nan,nan,nan
7.248218557000655,1526841.3996956525,-4462999.797568925,4278785.941721009,-0.05548650094566634,1.4247690886652253,-3.001520386601992,0.901836599797425,-0.39980790898294855,-0.06640288584241152,-0.149783311784212,0.06,-0.13,9.39,0.0,0.0,0.0,nan,nan,nan
7.570993760999954,1526841.3817864805,-4462999.337701496,4278784.972931419,-0.05711446846557768,1.4896433597768013,-3.1336448318626338,0.9018383624216344,-0.39980869040066963,-0.06639818080052705,-0.1497726987400984,0.0633333333333333,-0.1366666666666667,9.386666666666672,0.0,0.0,0.0,nan,nan,nan
7.892385710000781,1526841.3634466103,-4462998.859366201,4278783.966695319,-0.05878161732828537,1.5541673708457875,-3.265090652022028,0.9018401158619636,-0.3998094677469348,-0.06639349993358297,-0.14976214022678713,0.0633333333333333,-0.1366666666666667,9.386666666666672,0.0,0.0,0.0,nan,nan,nan
8.215813003000221,1526841.3444147746,-4462998.356170481,4278782.909550722,-0.0605103144115551,1.6192100024469989,-3.3976277700071504,0.901841883727683,-0.3998102514883554,-0.06638878021425,-0.14975149407512378,0.0633333333333333,-0.1366666666666667,9.386666666666672,0.0,0.0,0.0,nan,nan,nan
8.231684106000102,1526841.3434500778,-4462998.330355931,4278782.855383422,-0.060578490903968746,1.6221909123660607,-3.403600247313625,0.9018419707749838,-0.3998102900787158,-0.06638854781278991,-0.14975096985302147,0.06,-0.12,9.42,0.0,0.0,0.0,nan,nan,nan
8.249926699000753,1526841.3423466804,-4462998.300808786,4278782.793389073,-0.06101353166353083,1.625514742394881,-3.4111955756151,0.9018420702252286,-0.3998103341676278,-0.06638828229656055,-0.14975037093477073,0.04,-0.15,9.39,0.0,0.0,0.0,nan,nan,nan
8.267508371000076,1526841.3412720438,-4462998.272178453,4278782.733307389,-0.06113526844202217,1.628942983015771,-3.418160881787139,0.9018421663922288,-0.3998103768009911,-0.0663880255450301,-0.1497497917868299,0.06,-0.13,9.4,0.0,0.0,0.0,nan,nan,nan
8.281960263000656,1526841.340392026,-4462998.248730466,4278782.68410432,-0.061577828666678214,1.6314127545972452,-3.4238634093460933,0.9018422449861133,-0.39981041164372944,-0.0663878157103368,-0.14974931846801337,0.03,-0.14,9.41,0.0,0.0,0.0,nan,nan,nan
8.501131160000114,1526841.3269099814,-4462997.891543802,4278781.934472846,-0.06728741219404472,1.672755969843454,-3.513539722036361,0.9018434403752893,-0.39981094159122527,-0.06638462410419968,-0.1497421192426806,0.04,-0.14,9.39,0.0,0.0,0.0,nan,nan,nan
8.518504427000153,1526841.3257217978,-4462997.862005716,4278781.872429584,-0.06754029559338554,1.676023039719976,-3.5206537973355796,0.9018435367840293,-0.3998109843317581,-0.06638436669268374,-0.1497415386060272,0.05,-0.14,9.4,0.0,0.0,0.0,nan,nan,nan
8.532887614000174,1526841.3247649944,-4462997.838262492,4278781.82255457,-0.06750908686140814,1.6788349135269511,-3.5264561945839836,0.901843614127713,-0.3998110186202495,-0.06638416018416225,-0.14974107278997237,0.07,-0.14,9.39,0.0,0.0,0.0,nan,nan,nan
8.550799643000573,1526841.3235403334,-4462997.80780728,4278781.758582246,-0.06750860692365704,1.6825508713981345,-3.5337519858266755,0.9018437131692181,-0.39981106252795645,-0.0663838957412452,-0.1497404762927651,0.07,-0.13,9.39,0.0,0.0,0.0,nan,nan,nan
8.871891320000032,1526841.3018785892,-4462997.267920764,4278780.624693768,-0.07364800950368558,1.7464152854302815,-3.6673328964315175,0.9018454649578675,-0.39981183914198865,-0.06637921824952933,-0.14972992539287083,0.05,-0.14,9.38,0.0,0.0,0.0,nan,nan,nan
9.193254981000791,1526841.2782255516,-4462996.707036274,4278779.446881044,-0.08134157654759558,1.804778868723281,-3.796721755254727,0.9018472182033249,-0.3998126164018621,-0.06637453652881904,-0.1497193649537407,0.04,-0.14,9.4,0.0,0.0,0.0,nan,nan,nan
9.213873231999969,1526841.2765212301,-4462996.669221375,4278779.367329665,-0.08121100912177201,1.8086691961508266,-3.805614325303684,0.9018473325805187,-0.39981266710828367,-0.0663742310936923,-0.1497186759914416,0.07,-0.16,9.39,0.0,0.0,0.0,nan,nan,nan
9.231246999000177,1526841.275101698,-4462996.637606646,4278779.300809228,-0.08142916530869224,1.8117901448712486,-3.8127859722885282,0.9018474279982287,-0.3998127094094667,-0.06637397628724243,-0.14971810123096987,0.05,-0.15,9.4,0.0,0.0,0.0,nan,nan,nan
9.245525317000101,1526841.2739570586,-4462996.612138544,4278779.247213383,-0.0817025324034718,1.814586418902103,-3.818637953654826,0.9018475047318779,-0.3998127434275138,-0.06637377137456574,-0.14971763901462187,0.05,-0.14,9.38,0.0,0.0,0.0,nan,nan,nan
9.263691123000172,1526841.27245508,-4462996.578780091,4278779.177013445,-0.08185042860164488,1.818198005516951,-3.826687037256646,0.9018476050833765,-0.39981278791597524,-0.0663735033908371,-0.14971703453049534,0.06,-0.16,9.37,0.0,0.0,0.0,nan,nan,nan
9.584419404000073,1526841.2462340281,-4462995.996314432,4278777.951121774,-0.08289632300235555,1.8766399813266257,-3.962649164253768,0.9018493537563962,-0.39981356314876665,-0.06636883346726254,-0.1497065007018662,0.06,-0.16,9.39,0.0,0.0,0.0,nan,nan,nan
9.602054032000524,1526841.244806617,-4462995.964000128,4278777.88288799,-0.08318890363664572,1.8799322806923233,-3.969458850530308,0.9018494477454305,-0.3998136048165803,-0.06636858245502471,-0.14970593449990274,0.05,-0.13,9.4,0.0,0.0,0.0,nan,nan,nan
9.723841979000099,1526841.234655448,-4462995.734600418,4278777.398512717,-0.08466535268084202,1.9052885302128044,-4.017631425919209,0.9018501137962679,-0.39981390009445333,-0.06636680363540631,-0.14970192206142852,0.06,-0.12,9.39,0.0,0.0,0.0,nan,nan,nan
10.046507610000845,1526841.2073266224,-4462995.119599164,4278776.101675873,-0.08796118985613705,1.9705167453972368,-4.152010820038191,0.9018518755725174,-0.39981468113625157,-0.06636209822960408,-0.14969130819643486,0.06,-0.14,9.38,0.0,0.0,0.0,nan,nan,nan
10.06696903700049,1526841.2054943552,-4462995.0785525,4278776.015187802,-0.08841461448454699,1.9747764306144613,-4.160234194798918,0.9018519892610988,-0.39981473153739305,-0.06636179457489429,-0.14969062325017732,0.05,-0.12,9.39,0.0,0.0,0.0,nan,nan,nan
10.388414528000794,1526841.1771177787,-4462994.444750106,4278774.679965063,-0.08647208117075686,2.034111665880526,-4.2919173477570425,0.9018537408764773,-0.3998155080746096,-0.06635711594516408,-0.14968006978329285,0.07,-0.15,9.4,0.0,0.0,0.0,nan,nan,nan
10.406588001000273,1526841.175527665,-4462994.407345331,4278774.601042059,-0.08648731520208862,2.037872995065118,-4.299313117915283,0.9018538412314455,-0.3998155525646093,-0.06635684788305049,-0.14967946512235536,0.07,-0.13,9.39,0.0,0.0,0.0,nan,nan,nan
10.7291967200008,1526841.1476393421,-4462993.750221683,4278773.214704279,-0.0906897172790606,2.0953857914786203,-4.4316151948300195,0.9018556009383779,-0.3998163326890248,-0.06635214727962645,-0.14966886208996485,0.05,-0.15,9.4,0.0,0.0,0.0,nan,nan,nan
10.747222242000134,1526841.1459626558,-4462993.711481847,4278773.132771851,-0.09114850912085772,2.0987401524181473,-4.439063845054161,0.9018557018283222,-0.39981637741619347,-0.06635187776777803,-0.14966825415889712,0.04,-0.14,9.4,0.0,0.0,0.0,nan,nan,nan
10.761806834000708,1526841.1446414911,-4462993.681061368,4278773.068429227,-0.09130170571055829,2.1021107357640125,-4.445282797233323,0.9018557809253012,-0.39981641248196687,-0.06635166647167154,-0.14966777754360777,0.07,-0.13,9.35,0.0,0.0,0.0,nan,nan,nan
10.779769069000395,1526841.142991774,-4462993.643078636,4278772.988108061,-0.09119204703532169,2.1059906448536956,-4.452671284613292,0.9018558795263599,-0.39981645619441236,-0.06635140307227687,-0.1496671834002476,0.08,-0.13,9.38,0.0,0.0,0.0,nan,nan,nan
10.797676973000307,1526841.1413765124,-4462993.605775755,4278772.9092390165,-0.09134514618510864,2.108912048244953,-4.4599511049686,0.9018559761837818,-0.3998164990451924,-0.06635114486400277,-0.14966660096636694,0.05,-0.16,9.41,0.0,0.0,0.0,nan,nan,nan
10.812761120000687,1526841.1400346328,-4462993.57479539,4278772.843721389,-0.09161126946224327,2.111287445798697,-4.465988685201789,0.9018560563471174,-0.39981653458370975,-0.06635093071684399,-0.14966611792003096,0.04,-0.16,9.41,0.0,0.0,0.0,nan,nan,nan
10.829987855000581,1526841.1384035253,-4462993.537204634,4278772.764205979,-0.09142239495651533,2.1148724714695617,-4.4732815270394415,0.9018561535054048,-0.3998165776565367,-0.06635067116866819,-0.14966553246376788,0.08,-0.14,9.39,0.0,0.0,0.0,nan,nan,nan
11.151636628000233,1526841.1091198642,-4462992.859786276,4278771.33136165,-0.09715797453763758,2.1664542521126835,-4.600403176205111,0.9018579013499901,-0.39981735252206135,-0.06634600180695083,-0.14965499990250586,0.04,-0.15,9.42,0.0,0.0,0.0,nan,nan,nan
11.171682912000506,1526841.107047962,-4462992.813586453,4278771.233257656,-0.0972925060376342,2.1704737130509844,-4.609296068717422,0.9018580177102082,-0.3998174041076098,-0.06634569093897849,-0.14965429868547422,0.06,-0.15,9.39,0.0,0.0,0.0,nan,nan,nan
11.189377702999991,1526841.1053443854,-4462992.775581797,4278771.152549601,-0.09748110817996188,2.1734603301528463,-4.616115468359891,0.9018581132521711,-0.3998174464638775,-0.06634543568794035,-0.14965372292215598,0.05,-0.14,9.42,0.0,0.0,0.0,nan,nan,nan
11.203812887000822,1526841.1039471133,-4462992.74442791,4278771.08638325,-0.09753748680219096,2.176061422415013,-4.621996629065033,0.9018581914637199,-0.39981748113711635,-0.06634522673629058,-0.14965325159519843,0.06,-0.15,9.4,0.0,0.0,0.0,nan,nan,nan
11.52883072000077,1526841.072243033,-4462992.037109849,4278769.584025981,-0.09981922596525614,2.2346240702499105,-4.7538325451675085,0.901859964990574,-0.3998182673882669,-0.06634048836240583,-0.14964256336493392,0.05666666666666664,-0.1466666666666667,9.403333333333338,0.0,0.0,0.0,nan,nan,nan
11.544903478000379,1526841.0706285192,-4462992.000966195,4278769.507135697,-0.10003296648250001,2.237990744855838,-4.7604464574694525,0.9018600532386972,-0.3998183065109835,-0.06634025257871334,-0.1496420315136155,0.06,-0.13,9.38,0.0,0.0,0.0,nan,nan,nan
11.562819132000186,1526841.0688101477,-4462991.960284621,4278769.420601624,-0.10032300730556473,2.2413571379468133,-4.768026903194387,0.9018601524167797,-0.3998183504792388,-0.06633998759103595,-0.14964143378760605,0.05,-0.15,9.39,0.0,0.0,0.0,nan,nan,nan
11.883230768999965,1526841.0366868437,-4462991.242604814,4278767.893885255,-0.10539761631289832,2.3104606274037893,-4.905633322646073,0.9018618993639382,-0.39981912494691046,-0.06633531985454666,-0.1496309048923299,0.06,-0.14,9.36,0.0,0.0,0.0,nan,nan,nan
11.901321246000407,1526841.034852783,-4462991.202399682,4278767.808520617,-0.10575344662175798,2.3139035018643828,-4.912632158097742,0.9018619942990599,-0.3998191670341495,-0.06633506618401064,-0.14963033269411039,0.05,-0.13,9.39,0.0,0.0,0.0,nan,nan,nan
