# t [sec],r_ecef_X,r_ecef_Y,r_ecef_Z,v_ecef_X,v_ecef_Y,v_ecef_Z,q_e2b_scalar,q_e2b_i,q_e2b_j,q_e2b_k,accel_X [m/s^2],accel_Y [m/s^2],accel_Z [m/s^2],gyro_X [rad/s],gyro_Y [rad/s],gyro_Z [rad/s],lat [deg],long [deg],alt [m]
0.00000000,1527850.15271871,-4464959.00900598,4276353.58974353,3.78456150,1.29502673,-0.00000000,0.90179701,-0.39979036,-0.06650846,-0.15002145,0.00000000,0.00000000,0.00000000,0.00000000,0.00000000,0.00000000,0.00000000,0.00000000,0.00000000
0.00043592,1527850.53117486,-4464958.87950331,4276353.58974353,3.78454738,1.29504385,-0.00002685,0.90179701,-0.39979036,-0.06650846,-0.15002145,-0.00007759,0.03311386,9.80305312,-0.00000000,0.00005404,0.00004897,nan,nan,nan
0.00081651,1527850.90962960,-4464958.74999892,4276353.58974084,3.78453326,1.29506096,-0.00005370,0.90179701,-0.39979036,-0.06650846,-0.15002145,-0.00007698,0.03311386,9.80305312,-0.00000000,0.00005404,0.00004897,nan,nan,nan
0.00117439,1527851.28808293,-4464958.62049283,4276353.58973547,3.78451914,1.29507808,-0.00008055,0.90179701,-0.39979036,-0.06650846,-0.15002145,-0.00007636,0.03311386,9.80305312,-0.00000000,0.00005404,0.00004897,nan,nan,nan
0.00149995,1527851.66653484,-4464958.49098502,4276353.58972742,3.78450501,1.29509519,-0.00010739,0.90179701,-0.39979036,-0.06650846,-0.15002145,-0.00007575,0.03311386,9.80305312,-0.00000000,0.00005404,0.00004897,nan,nan,nan
0.00188064,1527852.04498534,-4464958.36147550,4276353.58971668,3.78449089,1.29511231,-0.00013424,0.90179701,-0.39979036,-0.06650846,-0.15002145,-0.00007514,0.03311386,9.80305312,-0.00000000,0.00005404,0.00004897,nan,nan,nan
0.00222571,1527852.42343443,-4464958.23196427,4276353.58970325,3.78447677,1.29512943,-0.00016109,0.90179701,-0.39979036,-0.06650846,-0.15002145,-0.00007452,0.03311386,9.80305312,-0.00000000,0.00005404,0.00004897,nan,nan,nan
0.00260813,1527852.80188211,-4464958.10245133,4276353.58968714,3.78446265,1.29514654,-0.00018794,0.90179701,-0.39979036,-0.06650846,-0.15002145,-0.00007391,0.03311386,9.80305312,-0.00000000,0.00005404,0.00004897,nan,nan,nan
0.00292061,1527853.18032838,-4464957.97293667,4276353.58966835,3.78444853,1.29516366,-0.00021479,0.90179701,-0.39979036,-0.06650846,-0.15002145,-0.00007329,0.03311386,9.80305312,-0.00000000,0.00005404,0.00004897,nan,nan,nan
0.00321935,1527853.55877323,-4464957.84342031,4276353.58964687,3.78443441,1.29518078,-0.00024164,0.90179701,-0.39979036,-0.06650846,-0.15002145,-0.00007268,0.03311386,9.80305312,-0.00000000,0.00005404,0.00004897,nan,nan,nan
0.00352146,1527853.93721667,-4464957.71390223,4276353.58962271,3.78442029,1.29519790,-0.00026848,0.90179701,-0.39979036,-0.06650846,-0.15002145,-0.00007207,0.03311386,9.80305312,-0.00000000,0.00005404,0.00004897,nan,nan,nan
0.00383402,1527854.31565870,-4464957.58438244,4276353.58959586,3.78440617,1.29521501,-0.00029533,0.90179701,-0.39979036,-0.06650846,-0.15002145,-0.00007145,0.03311386,9.80305312,-0.00000000,0.00005404,0.00004897,nan,nan,nan
0.00424882,1527854.69409931,-4464957.45486094,4276353.58956633,3.78439205,1.29523213,-0.00032218,0.90179701,-0.39979036,-0.06650846,-0.15002145,-0.00007084,0.03311386,9.80305312,-0.00000000,0.00005404,0.00004897,nan,nan,nan
0.00485495,1527855.07253852,-4464957.32533772,4276353.58953411,3.78437793,1.29524925,-0.00034903,0.90179701,-0.39979036,-0.06650846,-0.15002145,-0.00007022,0.03311386,9.80305312,-0.00000000,0.00005404,0.00004897,nan,nan,nan
0.00511864,1527855.45097631,-4464957.19581280,4276353.58949921,3.78436381,1.29526637,-0.00037588,0.90179701,-0.39979036,-0.06650846,-0.15002145,-0.00006961,0.03311386,9.80305312,-0.00000000,0.00005404,0.00004897,nan,nan,nan
0.00537553,1527855.82941269,-4464957.06628616,4276353.58946162,3.78434969,1.29528349,-0.00040273,0.90179701,-0.39979036,-0.06650846,-0.15002145,-0.00006900,0.03311386,9.80305312,-0.00000000,0.00005404,0.00004897,nan,nan,nan
0.00562885,1527856.20784766,-4464956.93675782,4276353.58942134,3.78433557,1.29530061,-0.00042958,0.90179701,-0.39979036,-0.06650846,-0.15002145,-0.00006838,0.03311386,9.80305312,-0.00000000,0.00005404,0.00004897,nan,nan,nan
0.00588115,1527856.58628122,-4464956.80722775,4276353.58937839,3.78432146,1.29531772,-0.00045642,0.90179701,-0.39979036,-0.06650846,-0.15002145,-0.00006777,0.03311386,9.80305312,-0.00000000,0.00005404,0.00004897,nan,nan,nan
0.00613405,1527856.96471337,-4464956.67769598,4276353.58933274,3.78430734,1.29533484,-0.00048327,0.90179701,-0.39979036,-0.06650846,-0.15002145,-0.00006716,0.03311386,9.80305312,-0.00000000,0.00005404,0.00004897,nan,nan,nan
0.00638608,1527857.34314410,-4464956.54816250,4276353.58928442,3.78429322,1.29535196,-0.00051012,0.90179701,-0.39979036,-0.06650846,-0.15002145,-0.00006654,0.03311386,9.80305312,-0.00000000,0.00005404,0.00004897,nan,nan,nan
0.00663976,1527857.72157342,-4464956.41862730,4276353.58923340,3.78427910,1.29536908,-0.00053697,0.90179701,-0.39979036,-0.06650846,-0.15002145,-0.00006593,0.03311386,9.80305312,-0.00000000,0.00005404,0.00004897,nan,nan,nan
0.00689273,1527858.10000133,-4464956.28909039,4276353.58917971,3.78426498,1.29538620,-0.00056382,0.90179701,-0.39979036,-0.06650846,-0.15002145,-0.00006531,0.03311386,9.80305312,-0.00000000,0.00005404,0.00004897,nan,nan,nan
0.00714353,1527858.47842783,-4464956.15955177,4276353.58912333,3.78425087,1.29540332,-0.00059067,0.90179701,-0.39979036,-0.06650846,-0.15002145,-0.00006470,0.03311386,9.80305312,-0.00000000,0.00005404,0.00004897,nan,nan,nan
0.00739374,1527858.85685292,-4464956.03001144,4276353.58906426,3.78423675,1.29542044,-0.00061752,0.90179701,-0.39979036,-0.06650846,-0.15002145,-0.00006409,0.03311386,9.80305312,-0.00000000,0.00005404,0.00004897,nan,nan,nan
0.00764702,1527859.23527659,-4464955.90046940,4276353.58900251,3.78422263,1.29543756,-0.00064436,0.90179701,-0.39979036,-0.06650846,-0.15002145,-0.00006347,0.03311386,9.80305312,-0.00000000,0.00005404,0.00004897,nan,nan,nan
0.00789704,1527859.61369886,-4464955.77092564,4276353.58893807,3.78420852,1.29545468,-0.00067121,0.90179701,-0.39979036,-0.06650846,-0.15002145,-0.00006286,0.03311386,9.80305312,-0.00000000,0.00005404,0.00004897,nan,nan,nan
0.00814717,1527859.99211971,-4464955.64138017,4276353.58887095,3.78419440,1.29547180,-0.00069806,0.90179701,-0.39979036,-0.06650846,-0.15002145,-0.00006224,0.03311386,9.80305312,-0.00000000,0.00005404,0.00004897,nan,nan,nan
0.00839681,1527860.37053915,-4464955.51183299,4276353.58880114,3.78418028,1.29548893,-0.00072491,0.90179701,-0.39979036,-0.06650846,-0.15002145,-0.00006163,0.03311386,9.80305312,-0.00000000,0.00005404,0.00004897,nan,nan,nan
0.00864772,1527860.74895718,-4464955.38228410,4276353.58872865,3.78416617,1.29550605,-0.00075176,0.90179701,-0.39979036,-0.06650846,-0.15002145,-0.00006102,0.03311386,9.80305312,-0.00000000,0.00005404,0.00004897,nan,nan,nan
0.00889913,1527861.12737379,-4464955.25273349,4276353.58865348,3.78415205,1.29552317,-0.00077861,0.90179701,-0.39979036,-0.06650846,-0.15002145,-0.00006040,0.03311386,9.80305312,-0.00000000,0.00005404,0.00004897,nan,nan,nan
0.00915063,1527861.50578900,-4464955.12318118,4276353.58857562,3.78413794,1.29554029,-0.00080546,0.90179701,-0.39979036,-0.06650846,-0.15002145,-0.00005979,0.03311386,9.80305312,-0.00000000,0.00005404,0.00004897,nan,nan,nan
0.00940065,1527861.88420279,-4464954.99362715,4276353.58849507,3.78412382,1.29555741,-0.00083231,0.90179701,-0.39979036,-0.06650846,-0.15002145,-0.00005918,0.03311386,9.80305312,-0.00000000,0.00005404,0.00004897,nan,nan,nan
0.00965075,1527862.26261517,-4464954.86407141,4276353.58841184,3.78410971,1.29557453,-0.00085915,0.90179701,-0.39979036,-0.06650846,-0.15002145,-0.00005856,0.03311386,9.80305312,-0.00000000,0.00005404,0.00004897,nan,nan,nan
0.00990150,1527862.64102614,-4464954.73451395,4276353.58832592,3.78409559,1.29559166,-0.00088600,0.90179701,-0.39979036,-0.06650846,-0.15002145,-0.00005795,0.03311386,9.80305312,-0.00000000,0.00005404,0.00004897,nan,nan,nan
0.01016123,1527863.01943570,-4464954.60495479,4276353.58823732,3.78408148,1.29560878,-0.00091285,0.90179701,-0.39979036,-0.06650846,-0.15002145,-0.00005733,0.03311386,9.80305312,-0.00000000,0.00005404,0.00004897,nan,nan,nan
0.01041199,1527863.39784385,-4464954.47539391,4276353.58814604,3.78406736,1.29562590,-0.00093970,0.90179701,-0.39979036,-0.06650846,-0.15002145,-0.00005672,0.03311386,9.80305312,-0.00000000,0.00005404,0.00004897,nan,nan,nan
0.01066282,1527863.77625059,-4464954.34583132,4276353.58805207,3.78405325,1.29564303,-0.00096655,0.90179701,-0.39979036,-0.06650846,-0.15002145,-0.00005611,0.03311386,9.80305312,-0.00000000,0.00005404,0.00004897,nan,nan,nan
0.01091309,1527864.15465591,-4464954.21626702,4276353.58795541,3.78403914,1.29566015,-0.00099340,0.90179701,-0.39979036,-0.06650846,-0.15002145,-0.00005549,0.03311386,9.80305312,-0.00000000,0.00005404,0.00004897,nan,nan,nan
0.01116859,1527864.53305983,-4464954.08670100,4276353.58785607,3.78402502,1.29567727,-0.00102025,0.90179701,-0.39979036,-0.06650846,-0.15002145,-0.00005488,0.03311386,9.80305312,-0.00000000,0.00005404,0.00004897,nan,nan,nan
0.01142721,1527864.91146233,-4464953.95713327,4276353.58775405,3.78401091,1.29569440,-0.00104710,0.90179701,-0.39979036,-0.06650846,-0.15002145,-0.00005427,0.03311386,9.80305312,-0.00000000,0.00005404,0.00004897,nan,nan,nan
0.01168241,1527865.28986342,-4464953.82756383,4276353.58764934,3.78399680,1.29571152,-0.00107395,0.90179701,-0.39979036,-0.06650846,-0.15002145,-0.00005365,0.03311386,9.80305312,-0.00000000,0.00005404,0.00004897,nan,nan,nan
0.01193325,1527865.66826310,-4464953.69799268,4276353.58754194,3.78398268,1.29572865,-0.00110080,0.90179701,-0.39979036,-0.06650846,-0.15002145,-0.00005304,0.03311386,9.80305312,-0.00000000,0.00005404,0.00004897,nan,nan,nan
0.01218470,1527866.04666137,-4464953.56841982,4276353.58743186,3.78396857,1.29574577,-0.00112764,0.90179701,-0.39979036,-0.06650846,-0.15002145,-0.00005242,0.03311386,9.80305312,-0.00000000,0.00005404,0.00004897,nan,nan,nan
0.01243829,1527866.42505822,-4464953.43884524,4276353.58731910,3.78395446,1.29576289,-0.00115449,0.90179701,-0.39979036,-0.06650846,-0.15002145,-0.00005181,0.03311386,9.80305312,-0.00000000,0.00005404,0.00004897,nan,nan,nan
0.01269293,1527866.80345367,-4464953.30926895,4276353.58720365,3.78394035,1.29578002,-0.00118134,0.90179701,-0.39979036,-0.06650846,-0.15002145,-0.00005120,0.03311386,9.80305312,-0.00000000,0.00005404,0.00004897,nan,nan,nan
0.01294689,1527867.18184770,-4464953.17969095,4276353.58708552,3.78392623,1.29579714,-0.00120819,0.90179701,-0.39979036,-0.06650846,-0.15002145,-0.00005058,0.03311386,9.80305312,-0.00000000,0.00005404,0.00004897,nan,nan,nan
0.01320003,1527867.56024033,-4464953.05011124,4276353.58696470,3.78391212,1.29581427,-0.00123504,0.90179701,-0.39979036,-0.06650846,-0.15002145,-0.00004997,0.03311386,9.80305312,-0.00000000,0.00005404,0.00004897,nan,nan,nan
0.01345128,1527867.93863154,-4464952.92052981,4276353.58684119,3.78389801,1.29583140,-0.00126189,0.90179701,-0.39979036,-0.06650846,-0.15002145,-0.00004935,0.03311386,9.80305312,-0.00000000,0.00005404,0.00004897,nan,nan,nan
0.01370359,1527868.31702134,-4464952.79094667,4276353.58671500,3.78388390,1.29584852,-0.00128874,0.90179701,-0.39979036,-0.06650846,-0.15002145,-0.00004874,0.03311386,9.80305312,-0.00000000,0.00005404,0.00004897,nan,nan,nan
0.01395444,1527868.69540973,-4464952.66136182,4276353.58658613,3.78386979,1.29586565,-0.00131559,0.90179701,-0.39979036,-0.06650846,-0.15002145,-0.00004813,0.03311386,9.80305312,-0.00000000,0.00005404,0.00004897,nan,nan,nan
0.01421415,1527869.07379671,-4464952.53177525,4276353.58645457,3.78385568,1.29588277,-0.00134244,0.90179701,-0.39979036,-0.06650846,-0.15002145,-0.00004751,0.03311386,9.80305312,-0.00000000,0.00005404,0.00004897,nan,nan,nan
0.01447494,1527869.45218228,-4464952.40218697,4276353.58632033,3.78384157,1.29589990,-0.00136929,0.90179701,-0.39979036,-0.06650846,-0.15002145,-0.00004690,0.03311386,9.80305312,-0.00000000,0.00005404,0.00004897,nan,nan,nan
0.01508353,1527869.83056643,-4464952.27259698,4276353.58618340,3.78382746,1.29591703,-0.00139614,0.90179701,-0.39979036,-0.06650846,-0.15002145,-0.00004629,0.03311386,9.80305312,-0.00000000,0.00005404,0.00004897,nan,nan,nan
0.01537804,1527870.20894918,-4464952.14300528,4276353.58604379,3.78381335,1.29593415,-0.00142299,0.90179701,-0.39979036,-0.06650846,-0.15002145,-0.00004567,0.03311386,9.80305312,-0.00000000,0.00005404,0.00004897,nan,nan,nan
0.01564209,1527870.58733052,-4464952.01341187,4276353.58590149,3.78379924,1.29595128,-0.00144984,0.90179701,-0.39979036,-0.06650846,-0.15002145,-0.00004506,0.03311386,9.80305312,-0.00000000,0.00005404,0.00004897,nan,nan,nan
0.01589897,1527870.96571044,-4464951.88381674,4276353.58575650,3.78378513,1.29596841,-0.00147668,0.90179701,-0.39979036,-0.06650846,-0.15002145,-0.00004444,0.03311386,9.80305312,-0.00000000,0.00005404,0.00004897,nan,nan,nan
0.01615386,1527871.34408895,-4464951.75421990,4276353.58560884,3.78377102,1.29598554,-0.00150353,0.90179701,-0.39979036,-0.06650846,-0.15002145,-0.00004383,0.03311386,9.80305312,-0.00000000,0.00005404,0.00004897,nan,nan,nan
0.01640415,1527871.72246605,-4464951.62462134,4276353.58545848,3.78375691,1.29600267,-0.00153038,0.90179701,-0.39979036,-0.06650846,-0.15002145,-0.00004322,0.03311386,9.80305312,-0.00000000,0.00005404,0.00004897,nan,nan,nan
0.01665470,1527872.10084175,-4464951.49502108,4276353.58530544,3.78374280,1.29601979,-0.00155723,0.90179701,-0.39979036,-0.06650846,-0.15002145,-0.00004260,0.03311386,9.80305312,-0.00000000,0.00005404,0.00004897,nan,nan,nan
0.01690513,1527872.47921603,-4464951.36541910,4276353.58514972,3.78372869,1.29603692,-0.00158408,0.90179701,-0.39979036,-0.06650846,-0.15002145,-0.00004199,0.03311386,9.80305312,-0.00000000,0.00005404,0.00004897,nan,nan,nan
0.01715621,1527872.85758890,-4464951.23581541,4276353.58499131,3.78371459,1.29605405,-0.00161093,0.90179701,-0.39979036,-0.06650846,-0.15002145,-0.00004137,0.03311386,9.80305312,-0.00000000,0.00005404,0.00004897,nan,nan,nan
0.01740661,1527873.23596035,-4464951.10621000,4276353.58483022,3.78370048,1.29607118,-0.00163778,0.90179701,-0.39979036,-0.06650846,-0.15002145,-0.00004076,0.03311386,9.80305312,-0.00000000,0.00005404,0.00004897,nan,nan,nan
0.01765775,1527873.61433040,-4464950.97660288,4276353.58466644,3.78368637,1.29608831,-0.00166463,0.90179701,-0.39979036,-0.06650846,-0.15002145,-0.00004015,0.03311386,9.80305312,-0.00000000,0.00005404,0.00004897,nan,nan,nan
0.01790827,1527873.99269904,-4464950.84699405,4276353.58449998,3.78367226,1.29610544,-0.00169148,0.90179701,-0.39979036,-0.06650846,-0.15002145,-0.00003953,0.03311386,9.80305312,-0.00000000,0.00005404,0.00004897,nan,nan,nan
0.01815904,1527874.37106626,-4464950.71738351,4276353.58433083,3.78365815,1.29612257,-0.00171833,0.90179701,-0.39979036,-0.06650846,-0.15002145,-0.00003892,0.03311386,9.80305312,-0.00000000,0.00005404,0.00004897,nan,nan,nan
0.01840879,1527874.74943208,-4464950.58777125,4276353.58415900,3.78364405,1.29613970,-0.00174518,0.90179701,-0.39979036,-0.06650846,-0.15002145,-0.00003831,0.03311386,9.80305312,-0.00000000,0.00005404,0.00004897,nan,nan,nan
0.01865793,1527875.12779648,-4464950.45815728,4276353.58398448,3.78362994,1.29615683,-0.00177203,0.90179701,-0.39979036,-0.06650846,-0.15002145,-0.00003769,0.03311386,9.80305312,-0.00000000,0.00005404,0.00004897,nan,nan,nan
0.01890700,1527875.50615948,-4464950.32854160,4276353.58380727,3.78361583,1.29617396,-0.00179888,0.90179701,-0.39979036,-0.06650846,-0.15002145,-0.00003708,0.03311386,9.80305312,-0.00000000,0.00005404,0.00004897,nan,nan,nan
0.01915558,1527875.88452106,-4464950.19892420,4276353.58362739,3.78360173,1.29619109,-0.00182573,0.90179701,-0.39979036,-0.06650846,-0.15002145,-0.00003646,0.03311386,9.80305312,-0.00000000,0.00005404,0.00004897,nan,nan,nan
0.01940530,1527876.26288123,-4464950.06930509,4276353.58344481,3.78358762,1.29620822,-0.00185258,0.90179701,-0.39979036,-0.06650846,-0.15002145,-0.00003585,0.03311386,9.80305312,-0.00000000,0.00005404,0.00004897,nan,nan,nan
0.01965395,1527876.64124000,-4464949.93968427,4276353.58325956,3.78357352,1.29622535,-0.00187943,0.90179701,-0.39979036,-0.06650846,-0.15002145,-0.00003524,0.03311386,9.80305312,-0.00000000,0.00005404,0.00004897,nan,nan,nan
0.01990366,1527877.01959735,-4464949.81006174,4276353.58307161,3.78355941,1.29624248,-0.00190628,0.90179701,-0.39979036,-0.06650846,-0.15002145,-0.00003462,0.03311386,9.80305312,-0.00000000,0.00005404,0.00004897,nan,nan,nan
0.02015359,1527877.39795329,-4464949.68043749,4276353.58288099,3.78354530,1.29625962,-0.00193313,0.90179701,-0.39979036,-0.06650846,-0.15002145,-0.00003401,0.03311386,9.80305312,-0.00000000,0.00005404,0.00004897,nan,nan,nan
0.02040449,1527877.77630782,-4464949.55081153,4276353.58268767,3.78353120,1.29627675,-0.00195998,0.90179701,-0.39979036,-0.06650846,-0.15002145,-0.00003340,0.03311386,9.80305312,-0.00000000,0.00005404,0.00004897,nan,nan,nan
0.02065602,1527878.15466094,-4464949.42118385,4276353.58249168,3.78351709,1.29629388,-0.00198683,0.90179701,-0.39979036,-0.06650846,-0.15002145,-0.00003278,0.03311386,9.80305312,-0.00000000,0.00005404,0.00004897,nan,nan,nan
0.02090786,1527878.53301265,-4464949.29155446,4276353.58229299,3.78350299,1.29631101,-0.00201368,0.90179701,-0.39979036,-0.06650846,-0.15002145,-0.00003217,0.03311386,9.80305312,-0.00000000,0.00005404,0.00004897,nan,nan,nan
0.02115807,1527878.91136295,-4464949.16192336,4276353.58209162,3.78348888,1.29632815,-0.00204053,0.90179701,-0.39979036,-0.06650846,-0.15002145,-0.00003155,0.03311386,9.80305312,-0.00000000,0.00005404,0.00004897,nan,nan,nan
0.02141045,1527879.28971184,-4464949.03229055,4276353.58188757,3.78347478,1.29634528,-0.00206738,0.90179701,-0.39979036,-0.06650846,-0.15002145,-0.00003094,0.03311386,9.80305312,-0.00000000,0.00005404,0.00004897,nan,nan,nan
0.02166129,1527879.66805931,-4464948.90265602,4276353.58168083,3.78346068,1.29636241,-0.00209423,0.90179701,-0.39979036,-0.06650846,-0.15002145,-0.00003033,0.03311386,9.80305312,-0.00000000,0.00005404,0.00004897,nan,nan,nan
0.02190968,1527880.04640538,-4464948.77301978,4276353.58147141,3.78344657,1.29637955,-0.00212108,0.90179701,-0.39979036,-0.06650846,-0.15002145,-0.00002971,0.03311386,9.80305312,-0.00000000,0.00005404,0.00004897,nan,nan,nan
0.02216037,1527880.42475004,-4464948.64338182,4276353.58125930,3.78343247,1.29639668,-0.00214793,0.90179701,-0.39979036,-0.06650846,-0.15002145,-0.00002910,0.03311386,9.80305312,-0.00000000,0.00005404,0.00004897,nan,nan,nan
0.02241069,1527880.80309329,-4464948.51374215,4276353.58104451,3.78341837,1.29641381,-0.00217479,0.90179701,-0.39979036,-0.06650846,-0.15002145,-0.00002848,0.03311386,9.80305312,-0.00000000,0.00005404,0.00004897,nan,nan,nan
0.02265952,1527881.18143512,-4464948.38410077,4276353.58082703,3.78340426,1.29643095,-0.00220164,0.90179701,-0.39979036,-0.06650846,-0.15002145,-0.00002787,0.03311386,9.80305312,-0.00000000,0.00005404,0.00004897,nan,nan,nan
0.02291014,1527881.55977555,-4464948.25445768,4276353.58060686,3.78339016,1.29644808,-0.00222849,0.90179701,-0.39979036,-0.06650846,-0.15002145,-0.00002726,0.03311386,9.80305312,-0.00000000,0.00005404,0.00004897,nan,nan,nan
0.02316007,1527881.93811456,-4464948.12481287,4276353.58038401,3.78337606,1.29646522,-0.00225534,0.90179701,-0.39979036,-0.06650846,-0.15002145,-0.00002664,0.03311386,9.80305312,-0.00000000,0.00005404,0.00004897,nan,nan,nan
0.02341040,1527882.31645217,-4464947.99516635,4276353.58015848,3.78336195,1.29648235,-0.00228219,0.90179701,-0.39979036,-0.06650846,-0.15002145,-0.00002603,0.03311386,9.80305312,-0.00000000,0.00005404,0.00004897,nan,nan,nan
0.02366065,1527882.69478837,-4464947.86551811,4276353.57993026,3.78334785,1.29649949,-0.00230904,0.90179701,-0.39979036,-0.06650846,-0.15002145,-0.00002542,0.03311386,9.80305312,-0.00000000,0.00005404,0.00004897,nan,nan,nan
0.02391008,1527883.07312315,-4464947.73586816,4276353.57969936,3.78333375,1.29651663,-0.00233589,0.90179701,-0.39979036,-0.06650846,-0.15002145,-0.00002480,0.03311386,9.80305312,-0.00000000,0.00005404,0.00004897,nan,nan,nan
0.02415985,1527883.45145653,-4464947.60621650,4276353.57946577,3.78331965,1.29653376,-0.00236274,0.90179701,-0.39979036,-0.06650846,-0.15002145,-0.00002419,0.03311386,9.80305312,-0.00000000,0.00005404,0.00004897,nan,nan,nan
0.02440982,1527883.82978849,-4464947.47656312,4276353.57922950,3.78330555,1.29655090,-0.00238959,0.90179701,-0.39979036,-0.06650846,-0.15002145,-0.00002357,0.03311386,9.80305312,-0.00000000,0.00005404,0.00004897,nan,nan,nan
0.02465825,1527884.20811905,-4464947.34690803,4276353.57899054,3.78329145,1.29656803,-0.00241644,0.90179701,-0.39979036,-0.06650846,-0.15002145,-0.00002296,0.03311386,9.80305312,-0.00000000,0.00005404,0.00004897,nan,nan,nan
0.02491683,1527884.58644819,-4464947.21725123,4276353.57874889,3.78327734,1.29658517,-0.00244329,0.90179701,-0.39979036,-0.06650846,-0.15002145,-0.00002235,0.03311386,9.80305312,-0.00000000,0.00005404,0.00004897,nan,nan,nan
0.02516581,1527884.96477592,-4464947.08759271,4276353.57850456,3.78326324,1.29660231,-0.00247015,0.90179701,-0.39979036,-0.06650846,-0.15002145,-0.00002173,0.03311386,9.80305312,-0.00000000,0.00005404,0.00004897,nan,nan,nan
0.02541465,1527885.34310225,-4464946.95793248,4276353.57825755,3.78324914,1.29661945,-0.00249700,0.90179701,-0.39979036,-0.06650846,-0.15002145,-0.00002112,0.03311386,9.80305312,-0.00000000,0.00005404,0.00004897,nan,nan,nan
0.02566748,1527885.72142716,-4464946.82827054,4276353.57800785,3.78323504,1.29663658,-0.00252385,0.90179701,-0.39979036,-0.06650846,-0.15002145,-0.00002050,0.03311386,9.80305312,-0.00000000,0.00005404,0.00004897,nan,nan,nan
0.02591960,1527886.09975067,-4464946.69860688,4276353.57775546,3.78322094,1.29665372,-0.00255070,0.90179701,-0.39979036,-0.06650846,-0.15002145,-0.00001989,0.03311386,9.80305312,-0.00000000,0.00005404,0.00004897,nan,nan,nan
0.02617305,1527886.47807276,-4464946.56894151,4276353.57750039,3.78320684,1.29667086,-0.00257755,0.90179701,-0.39979036,-0.06650846,-0.15002145,-0.00001928,0.03311386,9.80305312,-0.00000000,0.00005404,0.00004897,nan,nan,nan
0.02642475,1527886.85639345,-4464946.43927442,4276353.57724264,3.78319274,1.29668800,-0.00260440,0.90179701,-0.39979036,-0.06650846,-0.15002145,-0.00001866,0.03311386,9.80305312,-0.00000000,0.00005404,0.00004897,nan,nan,nan
0.02667603,1527887.23471272,-4464946.30960562,4276353.57698220,3.78317864,1.29670514,-0.00263125,0.90179701,-0.39979036,-0.06650846,-0.15002145,-0.00001805,0.03311386,9.80305312,-0.00000000,0.00005404,0.00004897,nan,nan,nan
0.02692542,1527887.61303058,-4464946.17993511,4276353.57671907,3.78316454,1.29672228,-0.00265811,0.90179701,-0.39979036,-0.06650846,-0.15002145,-0.00001744,0.03311386,9.80305312,-0.00000000,0.00005404,0.00004897,nan,nan,nan
0.02717594,1527887.99134704,-4464946.05026288,4276353.57645326,3.78315044,1.29673942,-0.00268496,0.90179701,-0.39979036,-0.06650846,-0.15002145,-0.00001682,0.03311386,9.80305312,-0.00000000,0.00005404,0.00004897,nan,nan,nan
0.02742771,1527888.36966208,-4464945.92058894,4276353.57618477,3.78313635,1.29675656,-0.00271181,0.90179701,-0.39979036,-0.06650846,-0.15002145,-0.00001621,0.03311386,9.80305312,-0.00000000,0.00005404,0.00004897,nan,nan,nan
0.02767920,1527888.74797572,-4464945.79091328,4276353.57591358,3.78312225,1.29677370,-0.00273866,0.90179701,-0.39979036,-0.06650846,-0.15002145,-0.00001559,0.03311386,9.80305312,-0.00000000,0.00005404,0.00004897,nan,nan,nan
0.02792947,1527889.12628794,-4464945.66123591,4276353.57563972,3.78310815,1.29679084,-0.00276551,0.90179701,-0.39979036,-0.06650846,-0.15002145,-0.00001498,0.03311386,9.80305312,-0.00000000,0.00005404,0.00004897,nan,nan,nan
0.02818119,1527889.50459876,-4464945.53155683,4276353.57536317,3.78309405,1.29680798,-0.00279237,0.90179701,-0.39979036,-0.06650846,-0.15002145,-0.00001437,0.03311386,9.80305312,-0.00000000,0.00005404,0.00004897,nan,nan,nan
0.02842954,1527889.88290816,-4464945.40187603,4276353.57508393,3.78307995,1.29682512,-0.00281922,0.90179701,-0.39979036,-0.06650846,-0.15002145,-0.00001375,0.03311386,9.80305312,-0.00000000,0.00005404,0.00004897,nan,nan,nan
0.02868216,1527890.26121616,-4464945.27219352,4276353.57480201,3.78306586,1.29684226,-0.00284607,0.90179701,-0.39979036,-0.06650846,-0.15002145,-0.00001314,0.03311386,9.80305312,-0.00000000,0.00005404,0.00004897,nan,nan,nan
0.02893587,1527890.63952274,-4464945.14250929,4276353.57451740,3.78305176,1.29685940,-0.00287292,0.90179701,-0.39979036,-0.06650846,-0.15002145,-0.00001253,0.03311386,9.80305312,-0.00000000,0.00005404,0.00004897,nan,nan,nan
0.02918992,1527891.01782792,-4464945.01282335,4276353.57423011,3.78303766,1.29687654,-0.00289977,0.90179701,-0.39979036,-0.06650846,-0.15002145,-0.00001191,0.03311385,9.80305312,-0.00000000,0.00005404,0.00004897,nan,nan,nan
0.02944125,1527891.39613168,-4464944.88313570,4276353.57394013,3.78302356,1.29689368,-0.00292663,0.90179701,-0.39979036,-0.06650846,-0.15002145,-0.00001130,0.03311385,9.80305312,-0.00000000,0.00005404,0.00004897,nan,nan,nan
0.02969266,1527891.77443404,-4464944.75344633,4276353.57364747,3.78300947,1.29691082,-0.00295348,0.90179701,-0.39979036,-0.06650846,-0.15002145,-0.00001068,0.03311385,9.80305312,-0.00000000,0.00005404,0.00004897,nan,nan,nan
0.02994433,1527892.15273499,-4464944.62375525,4276353.57335212,3.78299537,1.29692797,-0.00298033,0.90179701,-0.39979036,-0.06650846,-0.15002145,-0.00001007,0.03311385,9.80305312,-0.00000000,0.00005404,0.00004897,nan,nan,nan
0.03019426,1527892.53103452,-4464944.49406245,4276353.57305409,3.78298127,1.29694511,-0.00300718,0.90179701,-0.39979036,-0.06650846,-0.15002145,-0.00000946,0.03311385,9.80305312,-0.00000000,0.00005404,0.00004897,nan,nan,nan
0.03044223,1527892.90933265,-4464944.36436794,4276353.57275337,3.78296718,1.29696225,-0.00303404,0.90179701,-0.39979036,-0.06650846,-0.15002145,-0.00000884,0.03311385,9.80305312,-0.00000000,0.00005404,0.00004897,nan,nan,nan
0.03075112,1527893.28762937,-4464944.23467171,4276353.57244997,3.78295308,1.29697940,-0.00306089,0.90179701,-0.39979036,-0.06650846,-0.15002145,-0.00000823,0.03311385,9.80305312,-0.00000000,0.00005404,0.00004897,nan,nan,nan
0.03101693,1527893.66592468,-4464944.10497378,4276353.57214388,3.78293899,1.29699654,-0.00308774,0.90179701,-0.39979036,-0.06650846,-0.15002145,-0.00000761,0.03311385,9.80305312,-0.00000000,0.00005404,0.00004897,nan,nan,nan
0.03127579,1527894.04421858,-4464943.97527412,4276353.57183510,3.78292489,1.29701368,-0.00311459,0.90179701,-0.39979036,-0.06650846,-0.15002145,-0.00000700,0.03311385,9.80305312,-0.00000000,0.00005404,0.00004897,nan,nan,nan
0.03153089,1527894.42251107,-4464943.84557275,4276353.57152364,3.78291080,1.29703083,-0.00314145,0.90179701,-0.39979036,-0.06650846,-0.15002145,-0.00000639,0.03311385,9.80305312,-0.00000000,0.00005404,0.00004897,nan,nan,nan
0.03178462,1527894.80080215,-4464943.71586967,4276353.57120950,3.78289670,1.29704797,-0.00316830,0.90179701,-0.39979036,-0.06650846,-0.15002145,-0.00000577,0.03311385,9.80305312,-0.00000000,0.00005404,0.00004897,nan,nan,nan
0.03203760,1527895.17909182,-4464943.58616487,4276353.57089267,3.78288261,1.29706512,-0.00319515,0.90179701,-0.39979036,-0.06650846,-0.15002145,-0.00000516,0.03311385,9.80305312,-0.00000000,0.00005404,0.00004897,nan,nan,nan
0.03229006,1527895.55738008,-4464943.45645836,4276353.57057315,3.78286851,1.29708226,-0.00322201,0.90179701,-0.39979036,-0.06650846,-0.15002145,-0.00000455,0.03311385,9.80305312,-0.00000000,0.00005404,0.00004897,nan,nan,nan
0.03261678,1527895.93566693,-4464943.32675013,4276353.57025095,3.78285442,1.29709941,-0.00324886,0.90179701,-0.39979036,-0.06650846,-0.15002145,-0.00000393,0.03311385,9.80305312,-0.00000000,0.00005404,0.00004897,nan,nan,nan
0.03298747,1527896.31395237,-4464943.19704019,4276353.56992607,3.78284032,1.29711655,-0.00327571,0.90179701,-0.39979036,-0.06650846,-0.15002145,-0.00000332,0.03311385,9.80305312,-0.00000000,0.00005404,0.00004897,nan,nan,nan
0.03337707,1527896.69223640,-4464943.06732854,4276353.56959850,3.78282623,1.29713370,-0.00330257,0.90179701,-0.39979036,-0.06650846,-0.15002145,-0.00000270,0.03311385,9.80305312,-0.00000000,0.00005404,0.00004897,nan,nan,nan
0.03365580,1527897.07051902,-4464942.93761517,4276353.56926824,3.78281214,1.29715085,-0.00332942,0.90179701,-0.39979036,-0.06650846,-0.15002145,-0.00000209,0.03311385,9.80305312,-0.00000000,0.00005404,0.00004897,nan,nan,nan
0.03392032,1527897.44880024,-4464942.80790008,4276353.56893530,3.78279804,1.29716799,-0.00335627,0.90179701,-0.39979036,-0.06650846,-0.15002145,-0.00000148,0.03311385,9.80305312,-0.00000000,0.00005404,0.00004897,nan,nan,nan
0.03418639,1527897.82708004,-4464942.67818328,4276353.56859967,3.78278395,1.29718514,-0.00338313,0.90179701,-0.39979036,-0.06650846,-0.15002145,-0.00000086,0.03311385,9.80305312,-0.00000000,0.00005404,0.00004897,nan,nan,nan
0.03465310,1527898.20535844,-4464942.54846477,4276353.56826136,3.78276986,1.29720229,-0.00340998,0.90179701,-0.39979036,-0.06650846,-0.15002145,-0.00000025,0.03311385,9.80305312,-0.00000000,0.00005404,0.00004897,nan,nan,nan
0.03501352,1527898.58363542,-4464942.41874454,4276353.56792036,3.78275576,1.29721943,-0.00343683,0.90179701,-0.39979036,-0.06650846,-0.15002145,0.00000037,0.03311385,9.80305312,-0.00000000,0.00005404,0.00004897,nan,nan,nan
0.03532857,1527898.96191100,-4464942.28902260,4276353.56757668,3.78274167,1.29723658,-0.00346369,0.90179701,-0.39979036,-0.06650846,-0.15002145,0.00000098,0.03311385,9.80305312,-0.00000000,0.00005404,0.00004897,nan,nan,nan
0.03564414,1527899.34018517,-4464942.15929894,4276353.56723031,3.78272758,1.29725373,-0.00349054,0.90179701,-0.39979036,-0.06650846,-0.15002145,0.00000159,0.03311385,9.80305312,-0.00000000,0.00005404,0.00004897,nan,nan,nan
0.03598537,1527899.71845792,-4464942.02957357,4276353.56688125,3.78271349,1.29727088,-0.00351740,0.90179701,-0.39979036,-0.06650846,-0.15002145,0.00000221,0.03311385,9.80305312,-0.00000000,0.00005404,0.00004897,nan,nan,nan
0.03626542,1527900.09672927,-4464941.89984648,4276353.56652951,3.78269939,1.29728803,-0.00354425,0.90179701,-0.39979036,-0.06650846,-0.15002145,0.00000282,0.03311385,9.80305312,-0.00000000,0.00005404,0.00004897,nan,nan,nan
0.03655429,1527900.47499921,-4464941.77011768,4276353.56617509,3.78268530,1.29730518,-0.00357110,0.90179701,-0.39979036,-0.06650846,-0.15002145,0.00000343,0.03311385,9.80305312,-0.00000000,0.00005404,0.00004897,nan,nan,nan
0.03683527,1527900.85326774,-4464941.64038716,4276353.56581798,3.78267121,1.29732233,-0.00359796,0.90179701,-0.39979036,-0.06650846,-0.15002145,0.00000405,0.03311385,9.80305312,-0.00000000,0.00005404,0.00004897,nan,nan,nan
0.03717619,1527901.23153486,-4464941.51065493,4276353.56545818,3.78265712,1.29733948,-0.00362481,0.90179701,-0.39979036,-0.06650846,-0.15002145,0.00000466,0.03311385,9.80305312,-0.00000000,0.00005404,0.00004897,nan,nan,nan
0.03755723,1527901.60980058,-4464941.38092098,4276353.56509570,3.78264303,1.29735663,-0.00365167,0.90179701,-0.39979036,-0.06650846,-0.15002145,0.00000528,0.03311385,9.80305312,-0.00000000,0.00005404,0.00004897,nan,nan,nan
0.03794920,1527901.98806488,-4464941.25118531,4276353.56473054,3.78262894,1.29737378,-0.00367852,0.90179701,-0.39979036,-0.06650846,-0.15002145,0.00000589,0.03311385,9.80305312,-0.00000000,0.00005404,0.00004897,nan,nan,nan
0.03831403,1527902.36632777,-4464941.12144794,4276353.56436268,3.78261485,1.29739093,-0.00370538,0.90179701,-0.39979036,-0.06650846,-0.15002145,0.00000650,0.03311385,9.80305312,-0.00000000,0.00005404,0.00004897,nan,nan,nan
0.03867247,1527902.74458926,-4464940.99170884,4276353.56399215,3.78260076,1.29740808,-0.00373223,0.90179701,-0.39979036,-0.06650846,-0.15002145,0.00000712,0.03311385,9.80305312,-0.00000000,0.00005404,0.00004897,nan,nan,nan
0.03904091,1527903.12284933,-4464940.86196804,4276353.56361892,3.78258667,1.29742523,-0.00375909,0.90179701,-0.39979036,-0.06650846,-0.15002145,0.00000773,0.03311385,9.80305312,-0.00000000,0.00005404,0.00004897,nan,nan,nan
0.03939292,1527903.50110800,-4464940.73222551,4276353.56324301,3.78257258,1.29744238,-0.00378594,0.90179701,-0.39979036,-0.06650846,-0.15002145,0.00000834,0.03311385,9.80305312,-0.00000000,0.00005404,0.00004897,nan,nan,nan
0.03974335,1527903.87936526,-4464940.60248128,4276353.56286442,3.78255849,1.29745953,-0.00381280,0.90179701,-0.39979036,-0.06650846,-0.15002145,0.00000896,0.03311385,9.80305312,-0.00000000,0.00005404,0.00004897,nan,nan,nan
0.04006670,1527904.25762111,-4464940.47273532,4276353.56248314,3.78254440,1.29747668,-0.00383965,0.90179701,-0.39979036,-0.06650846,-0.15002145,0.00000957,0.03311385,9.80305312,-0.00000000,0.00005404,0.00004897,nan,nan,nan
0.04040262,1527904.63587555,-4464940.34298765,4276353.56209918,3.78253031,1.29749384,-0.00386651,0.90179701,-0.39979036,-0.06650846,-0.15002145,0.00001019,0.03311385,9.80305312,-0.00000000,0.00005404,0.00004897,nan,nan,nan
0.04076289,1527905.01412858,-4464940.21323827,4276353.56171252,3.78251622,1.29751099,-0.00389336,0.90179701,-0.39979036,-0.06650846,-0.15002145,0.00001080,0.03311385,9.80305312,-0.00000000,0.00005404,0.00004897,nan,nan,nan
0.04111722,1527905.39238020,-4464940.08348717,4276353.56132319,3.78250213,1.29752814,-0.00392022,0.90179701,-0.39979036,-0.06650846,-0.15002145,0.00001141,0.03311385,9.80305312,-0.00000000,0.00005404,0.00004897,nan,nan,nan
0.04147830,1527905.77063041,-4464939.95373436,4276353.56093117,3.78248804,1.29754530,-0.00394707,0.90179701,-0.39979036,-0.06650846,-0.15002145,0.00001203,0.03311385,9.80305312,-0.00000000,0.00005404,0.00004897,nan,nan,nan
0.04182773,1527906.14887922,-4464939.82397983,4276353.56053646,3.78247396,1.29756245,-0.00397393,0.90179701,-0.39979036,-0.06650846,-0.15002145,0.00001264,0.03311385,9.80305312,-0.00000000,0.00005404,0.00004897,nan,nan,nan
0.04218279,1527906.52712661,-4464939.69422358,4276353.56013907,3.78245987,1.29757960,-0.00400078,0.90179701,-0.39979036,-0.06650846,-0.15002145,0.00001326,0.03311385,9.80305312,-0.00000000,0.00005404,0.00004897,nan,nan,nan
0.04254980,1527906.90537260,-4464939.56446562,4276353.55973899,3.78244578,1.29759676,-0.00402764,0.90179701,-0.39979036,-0.06650846,-0.15002145,0.00001387,0.03311385,9.80305312,-0.00000000,0.00005404,0.00004897,nan,nan,nan
0.04292456,1527907.28361718,-4464939.43470595,4276353.55933623,3.78243169,1.29761391,-0.00405449,0.90179701,-0.39979036,-0.06650846,-0.15002145,0.00001448,0.03311385,9.80305312,-0.00000000,0.00005404,0.00004897,nan,nan,nan
0.04328495,1527907.66186035,-4464939.30494456,4276353.55893078,3.78241761,1.29763107,-0.00408135,0.90179701,-0.39979036,-0.06650846,-0.15002145,0.00001510,0.03311385,9.80305312,-0.00000000,0.00005404,0.00004897,nan,nan,nan
0.04364567,1527908.04010211,-4464939.17518145,4276353.55852264,3.78240352,1.29764822,-0.00410821,0.90179701,-0.39979036,-0.06650846,-0.15002145,0.00001571,0.03311385,9.80305312,-0.00000000,0.00005404,0.00004897,nan,nan,nan
0.04402968,1527908.41834246,-4464939.04541663,4276353.55811182,3.78238943,1.29766538,-0.00413506,0.90179701,-0.39979036,-0.06650846,-0.15002145,0.00001632,0.03311385,9.80305312,-0.00000000,0.00005404,0.00004897,nan,nan,nan
0.04432322,1527908.79658140,-4464938.91565009,4276353.55769831,3.78237534,1.29768253,-0.00416192,0.90179701,-0.39979036,-0.06650846,-0.15002145,0.00001694,0.03311385,9.80305312,-0.00000000,0.00005404,0.00004897,nan,nan,nan
0.04458788,1527909.17481894,-4464938.78588184,4276353.55728212,3.78236126,1.29769969,-0.00418877,0.90179701,-0.39979036,-0.06650846,-0.15002145,0.00001755,0.03311385,9.80305312,-0.00000000,0.00005404,0.00004897,nan,nan,nan
0.04484698,1527909.55305506,-4464938.65611187,4276353.55686324,3.78234717,1.29771685,-0.00421563,0.90179701,-0.39979036,-0.06650846,-0.15002145,0.00001817,0.03311385,9.80305312,-0.00000000,0.00005404,0.00004897,nan,nan,nan
0.04510299,1527909.93128978,-4464938.52634018,4276353.55644168,3.78233309,1.29773400,-0.00424249,0.90179701,-0.39979036,-0.06650846,-0.15002145,0.00001878,0.03311385,9.80305312,-0.00000000,0.00005404,0.00004897,nan,nan,nan
0.04535722,1527910.30952309,-4464938.39656678,4276353.55601743,3.78231900,1.29775116,-0.00426934,0.90179701,-0.39979036,-0.06650846,-0.15002145,0.00001939,0.03311385,9.80305312,-0.00000000,0.00005404,0.00004897,nan,nan,nan
0.04560971,1527910.68775499,-4464938.26679166,4276353.55559050,3.78230491,1.29776832,-0.00429620,0.90179701,-0.39979036,-0.06650846,-0.15002145,0.00002001,0.03311385,9.80305312,-0.00000000,0.00005404,0.00004897,nan,nan,nan
0.04587205,1527911.06598548,-4464938.13701483,4276353.55516088,3.78229083,1.29778548,-0.00432306,0.90179701,-0.39979036,-0.06650846,-0.15002145,0.00002062,0.03311385,9.80305312,-0.00000000,0.00005404,0.00004897,nan,nan,nan
0.04612471,1527911.44421456,-4464938.00723629,4276353.55472857,3.78227674,1.29780264,-0.00434991,0.90179701,-0.39979036,-0.06650846,-0.15002145,0.00002124,0.03311385,9.80305312,-0.00000000,0.00005404,0.00004897,nan,nan,nan
0.04637959,1527911.82244224,-4464937.87745602,4276353.55429358,3.78226266,1.29781979,-0.00437677,0.90179701,-0.39979036,-0.06650846,-0.15002145,0.00002185,0.03311385,9.80305312,-0.00000000,0.00005404,0.00004897,nan,nan,nan
0.04663206,1527912.20066850,-4464937.74767404,4276353.55385590,3.78224857,1.29783695,-0.00440363,0.90179701,-0.39979036,-0.06650846,-0.15002145,0.00002246,0.03311385,9.80305312,-0.00000000,0.00005404,0.00004897,nan,nan,nan
0.04688562,1527912.57889336,-4464937.61789035,4276353.55341554,3.78223449,1.29785411,-0.00443049,0.90179701,-0.39979036,-0.06650846,-0.15002145,0.00002308,0.03311385,9.80305312,-0.00000000,0.00005404,0.00004897,nan,nan,nan
0.04713949,1527912.95711681,-4464937.48810494,4276353.55297249,3.78222041,1.29787127,-0.00445734,0.90179701,-0.39979036,-0.06650846,-0.15002145,0.00002369,0.03311385,9.80305312,-0.00000000,0.00005404,0.00004897,nan,nan,nan
0.04739223,1527913.33533885,-4464937.35831781,4276353.55252676,3.78220632,1.29788843,-0.00448420,0.90179701,-0.39979036,-0.06650846,-0.15002145,0.00002430,0.03311385,9.80305312,-0.00000000,0.00005404,0.00004897,nan,nan,nan
0.04764589,1527913.71355948,-4464937.22852897,4276353.55207834,3.78219224,1.29790559,-0.00451106,0.90179701,-0.39979036,-0.06650846,-0.15002145,0.00002492,0.03311385,9.80305312,-0.00000000,0.00005404,0.00004897,nan,nan,nan
0.04790940,1527914.09177871,-4464937.09873841,4276353.55162723,3.78217815,1.29792275,-0.00453792,0.90179701,-0.39979036,-0.06650846,-0.15002145,0.00002553,0.03311385,9.80305312,-0.00000000,0.00005404,0.00004897,nan,nan,nan
0.04816481,1527914.46999652,-4464936.96894613,4276353.55117344,3.78216407,1.29793991,-0.00456477,0.90179701,-0.39979036,-0.06650846,-0.15002145,0.00002615,0.03311385,9.80305312,-0.00000000,0.00005404,0.00004897,nan,nan,nan
0.04842046,1527914.84821293,-4464936.83915214,4276353.55071696,3.78214999,1.29795708,-0.00459163,0.90179701,-0.39979036,-0.06650846,-0.15002145,0.00002676,0.03311385,9.80305312,-0.00000000,0.00005404,0.00004897,nan,nan,nan
0.04867194,1527915.22642793,-4464936.70935643,4276353.55025780,3.78213590,1.29797424,-0.00461849,0.90179701,-0.39979036,-0.06650846,-0.15002145,0.00002737,0.03311385,9.80305312,-0.00000000,0.00005404,0.00004897,nan,nan,nan
0.04893561,1527915.60464152,-4464936.57955901,4276353.54979595,3.78212182,1.29799140,-0.00464535,0.90179701,-0.39979036,-0.06650846,-0.15002145,0.00002799,0.03311385,9.80305312,-0.00000000,0.00005404,0.00004897,nan,nan,nan
0.04918780,1527915.98285370,-4464936.44975987,4276353.54933142,3.78210774,1.29800856,-0.00467221,0.90179701,-0.39979036,-0.06650846,-0.15002145,0.00002860,0.03311385,9.80305312,-0.00000000,0.00005404,0.00004897,nan,nan,nan
0.04943967,1527916.36106447,-4464936.31995901,4276353.54886420,3.78209366,1.29802572,-0.00469906,0.90179701,-0.39979036,-0.06650846,-0.15002145,0.00002921,0.03311385,9.80305312,-0.00000000,0.00005404,0.00004897,nan,nan,nan
0.04969263,1527916.73927384,-4464936.19015644,4276353.54839429,3.78207957,1.29804289,-0.00472592,0.90179701,-0.39979036,-0.06650846,-0.15002145,0.00002983,0.03311385,9.80305312,-0.00000000,0.00005404,0.00004897,nan,nan,nan
0.04994816,1527917.11748180,-4464936.06035215,4276353.54792170,3.78206549,1.29806005,-0.00475278,0.90179701,-0.39979036,-0.06650846,-0.15002145,0.00003044,0.03311385,9.80305312,-0.00000000,0.00005404,0.00004897,nan,nan,nan
0.05020015,1527917.49568835,-4464935.93054615,4276353.54744642,3.78205141,1.29807721,-0.00477964,0.90179701,-0.39979036,-0.06650846,-0.15002145,0.00003106,0.03311385,9.80305312,-0.00000000,0.00005404,0.00004897,nan,nan,nan
0.05045295,1527917.87389349,-4464935.80073842,4276353.54696846,3.78203733,1.29809438,-0.00480650,0.90179701,-0.39979036,-0.06650846,-0.15002145,0.00003167,0.03311385,9.80305312,-0.00000000,0.00005404,0.00004897,nan,nan,nan
0.05070423,1527918.25209722,-4464935.67092899,4276353.54648781,3.78202325,1.29811154,-0.00483336,0.90179701,-0.39979036,-0.06650846,-0.15002145,0.00003228,0.03311385,9.80305312,-0.00000000,0.00005404,0.00004897,nan,nan,nan
0.05095676,1527918.63029955,-4464935.54111783,4276353.54600447,3.78200917,1.29812871,-0.00486022,0.90179701,-0.39979036,-0.06650846,-0.15002145,0.00003290,0.03311385,9.80305312,-0.00000000,0.00005404,0.00004897,nan,nan,nan
0.05120992,1527919.00850046,-4464935.41130496,4276353.54551845,3.78199509,1.29814587,-0.00488707,0.90179701,-0.39979036,-0.06650846,-0.15002145,0.00003351,0.03311385,9.80305312,-0.00000000,0.00005404,0.00004897,nan,nan,nan
0.05146144,1527919.38669997,-4464935.28149037,4276353.54502974,3.78198101,1.29816304,-0.00491393,0.90179701,-0.39979036,-0.06650846,-0.15002145,0.00003413,0.03311385,9.80305312,-0.00000000,0.00005404,0.00004897,nan,nan,nan
0.05171283,1527919.76489807,-4464935.15167407,4276353.54453835,3.78196693,1.29818020,-0.00494079,0.90179701,-0.39979036,-0.06650846,-0.15002145,0.00003474,0.03311385,9.80305312,-0.00000000,0.00005404,0.00004897,nan,nan,nan
0.05197501,1527920.14309476,-4464935.02185605,4276353.54404427,3.78195284,1.29819737,-0.00496765,0.90179701,-0.39979036,-0.06650846,-0.15002145,0.00003535,0.03311385,9.80305312,-0.00000000,0.00005404,0.00004897,nan,nan,nan
0.05222678,1527920.52129005,-4464934.89203631,4276353.54354750,3.78193876,1.29821454,-0.00499451,0.90179701,-0.39979036,-0.06650846,-0.15002145,0.00003597,0.03311385,9.80305312,-0.00000000,0.00005404,0.00004897,nan,nan,nan
0.05247748,1527920.89948392,-4464934.76221486,4276353.54304805,3.78192469,1.29823170,-0.00502137,0.90179701,-0.39979036,-0.06650846,-0.15002145,0.00003658,0.03311385,9.80305312,-0.00000000,0.00005404,0.00004897,nan,nan,nan
0.05272925,1527921.27767639,-4464934.63239169,4276353.54254591,3.78191061,1.29824887,-0.00504823,0.90179701,-0.39979036,-0.06650846,-0.15002145,0.00003719,0.03311385,9.80305312,-0.00000000,0.00005404,0.00004897,nan,nan,nan
0.05298114,1527921.65586745,-4464934.50256680,4276353.54204109,3.78189653,1.29826604,-0.00507509,0.90179701,-0.39979036,-0.06650846,-0.15002145,0.00003781,0.03311385,9.80305312,-0.00000000,0.00005404,0.00004897,nan,nan,nan
0.05333727,1527922.03405711,-4464934.37274020,4276353.54153358,3.78188245,1.29828321,-0.00510195,0.90179701,-0.39979036,-0.06650846,-0.15002145,0.00003842,0.03311385,9.80305312,-0.00000000,0.00005404,0.00004897,nan,nan,nan
0.05363636,1527922.41224535,-4464934.24291188,4276353.54102338,3.78186837,1.29830037,-0.00512881,0.90179701,-0.39979036,-0.06650846,-0.15002145,0.00003904,0.03311385,9.80305312,-0.00000000,0.00005404,0.00004897,nan,nan,nan
0.05390012,1527922.79043219,-4464934.11308184,4276353.54051050,3.78185429,1.29831754,-0.00515567,0.90179701,-0.39979036,-0.06650846,-0.15002145,0.00003965,0.03311385,9.80305312,-0.00000000,0.00005404,0.00004897,nan,nan,nan
0.05416364,1527923.16861762,-4464933.98325008,4276353.53999494,3.78184021,1.29833471,-0.00518253,0.90179701,-0.39979036,-0.06650846,-0.15002145,0.00004026,0.03311385,9.80305312,-0.00000000,0.00005404,0.00004897,nan,nan,nan
0.05441879,1527923.54680164,-4464933.85341661,4276353.53947668,3.78182613,1.29835188,-0.00520939,0.90179701,-0.39979036,-0.06650846,-0.15002145,0.00004088,0.03311385,9.80305312,-0.00000000,0.00005404,0.00004897,nan,nan,nan
0.05467112,1527923.92498425,-4464933.72358142,4276353.53895574,3.78181205,1.29836905,-0.00523625,0.90179701,-0.39979036,-0.06650846,-0.15002145,0.00004149,0.03311385,9.80305312,-0.00000000,0.00005404,0.00004897,nan,nan,nan
0.05492025,1527924.30316546,-4464933.59374452,4276353.53843212,3.78179798,1.29838622,-0.00526311,0.90179701,-0.39979036,-0.06650846,-0.15002145,0.00004211,0.03311385,9.80305312,-0.00000000,0.00005404,0.00004897,nan,nan,nan
0.05517061,1527924.68134525,-4464933.46390590,4276353.53790581,3.78178390,1.29840339,-0.00528997,0.90179701,-0.39979036,-0.06650846,-0.15002145,0.00004272,0.03311385,9.80305312,-0.00000000,0.00005404,0.00004897,nan,nan,nan
0.05542191,1527925.05952364,-4464933.33406556,4276353.53737681,3.78176982,1.29842056,-0.00531684,0.90179701,-0.39979036,-0.06650846,-0.15002145,0.00004333,0.03311385,9.80305312,-0.00000000,0.00005404,0.00004897,nan,nan,nan
0.05567267,1527925.43770063,-4464933.20422350,4276353.53684513,3.78175574,1.29843773,-0.00534370,0.90179701,-0.39979036,-0.06650846,-0.15002145,0.00004395,0.03311385,9.80305312,-0.00000000,0.00005404,0.00004897,nan,nan,nan
0.05592413,1527925.81587620,-4464933.07437973,4276353.53631076,3.78174167,1.29845490,-0.00537056,0.90179701,-0.39979036,-0.06650846,-0.15002145,0.00004456,0.03311385,9.80305312,-0.00000000,0.00005404,0.00004897,nan,nan,nan
0.05617569,1527926.19405037,-4464932.94453424,4276353.53577370,3.78172759,1.29847207,-0.00539742,0.90179701,-0.39979036,-0.06650846,-0.15002145,0.00004517,0.03311385,9.80305312,-0.00000000,0.00005404,0.00004897,nan,nan,nan
0.05642541,1527926.57222313,-4464932.81468703,4276353.53523396,3.78171351,1.29848925,-0.00542428,0.90179701,-0.39979036,-0.06650846,-0.15002145,0.00004579,0.03311385,9.80305312,-0.00000000,0.00005404,0.00004897,nan,nan,nan
0.05667442,1527926.95039448,-4464932.68483811,4276353.53469153,3.78169944,1.29850642,-0.00545114,0.90179701,-0.39979036,-0.06650846,-0.15002145,0.00004640,0.03311385,9.80305312,-0.00000000,0.00005404,0.00004897,nan,nan,nan
0.05692640,1527927.32856442,-4464932.55498747,4276353.53414642,3.78168536,1.29852359,-0.00547800,0.90179701,-0.39979036,-0.06650846,-0.15002145,0.00004702,0.03311385,9.80305312,-0.00000000,0.00005404,0.00004897,nan,nan,nan
0.05717615,1527927.70673296,-4464932.42513511,4276353.53359862,3.78167129,1.29854077,-0.00550487,0.90179701,-0.39979036,-0.06650846,-0.15002145,0.00004763,0.03311385,9.80305312,-0.00000000,0.00005404,0.00004897,nan,nan,nan
0.05742639,1527928.08490009,-4464932.29528103,4276353.53304813,3.78165721,1.29855794,-0.00553173,0.90179701,-0.39979036,-0.06650846,-0.15002145,0.00004824,0.03311385,9.80305312,-0.00000000,0.00005404,0.00004897,nan,nan,nan
0.05767598,1527928.46306581,-4464932.16542524,4276353.53249496,3.78164314,1.29857511,-0.00555859,0.90179701,-0.39979036,-0.06650846,-0.15002145,0.00004886,0.03311385,9.80305312,-0.00000000,0.00005404,0.00004897,nan,nan,nan
0.05792665,1527928.84123012,-4464932.03556773,4276353.53193910,3.78162906,1.29859229,-0.00558545,0.90179701,-0.39979036,-0.06650846,-0.15002145,0.00004947,0.03311385,9.80305312,-0.00000000,0.00005404,0.00004897,nan,nan,nan
0.05817757,1527929.21939303,-4464931.90570850,4276353.53138055,3.78161498,1.29860946,-0.00561232,0.90179701,-0.39979036,-0.06650846,-0.15002145,0.00005008,0.03311385,9.80305312,-0.00000000,0.00005404,0.00004897,nan,nan,nan
0.05842870,1527929.59755453,-4464931.77584755,4276353.53081932,3.78160091,1.29862664,-0.00563918,0.90179701,-0.39979036,-0.06650846,-0.15002145,0.00005070,0.03311385,9.80305312,-0.00000000,0.00005404,0.00004897,nan,nan,nan
0.05867720,1527929.97571462,-4464931.64598489,4276353.53025540,3.78158684,1.29864381,-0.00566604,0.90179701,-0.39979036,-0.06650846,-0.15002145,0.00005131,0.03311385,9.80305312,-0.00000000,0.00005404,0.00004897,nan,nan,nan
0.05892641,1527930.35387330,-4464931.51612051,4276353.52968880,3.78157276,1.29866099,-0.00569290,0.90179701,-0.39979036,-0.06650846,-0.15002145,0.00005193,0.03311385,9.80305312,-0.00000000,0.00005404,0.00004897,nan,nan,nan
0.05917756,1527930.73203058,-4464931.38625441,4276353.52911951,3.78155869,1.29867816,-0.00571977,0.90179701,-0.39979036,-0.06650846,-0.15002145,0.00005254,0.03311385,9.80305312,-0.00000000,0.00005404,0.00004897,nan,nan,nan
0.05942830,1527931.11018645,-4464931.25638659,4276353.52854753,3.78154461,1.29869534,-0.00574663,0.90179701,-0.39979036,-0.06650846,-0.15002145,0.00005315,0.03311385,9.80305312,-0.00000000,0.00005404,0.00004897,nan,nan,nan
0.05968318,1527931.48834091,-4464931.12651706,4276353.52797287,3.78153054,1.29871252,-0.00577349,0.90179701,-0.39979036,-0.06650846,-0.15002145,0.00005377,0.03311385,9.80305312,-0.00000000,0.00005404,0.00004897,nan,nan,nan
0.05993543,1527931.86649396,-4464930.99664580,4276353.52739552,3.78151647,1.29872970,-0.00580036,0.90179701,-0.39979036,-0.06650846,-0.15002145,0.00005438,0.03311385,9.80305312,-0.00000000,0.00005404,0.00004897,nan,nan,nan
0.06018554,1527932.24464561,-4464930.86677284,4276353.52681548,3.78150239,1.29874687,-0.00582722,0.90179701,-0.39979036,-0.06650846,-0.15002145,0.00005500,0.03311385,9.80305312,-0.00000000,0.00005404,0.00004897,nan,nan,nan
0.06043490,1527932.62279585,-4464930.73689815,4276353.52623276,3.78148832,1.29876405,-0.00585408,0.90179701,-0.39979036,-0.06650846,-0.15002145,0.00005561,0.03311385,9.80305312,-0.00000000,0.00005404,0.00004897,nan,nan,nan
0.06068471,1527933.00094468,-4464930.60702174,4276353.52564735,3.78147425,1.29878123,-0.00588095,0.90179701,-0.39979036,-0.06650846,-0.15002145,0.00005622,0.03311385,9.80305312,-0.00000000,0.00005404,0.00004897,nan,nan,nan
0.06093512,1527933.37909210,-4464930.47714362,4276353.52505926,3.78146017,1.29879841,-0.00590781,0.90179701,-0.39979036,-0.06650846,-0.15002145,0.00005684,0.03311385,9.80305312,-0.00000000,0.00005404,0.00004897,nan,nan,nan
0.06118493,1527933.75723812,-4464930.34726378,4276353.52446848,3.78144610,1.29881559,-0.00593467,0.90179701,-0.39979036,-0.06650846,-0.15002145,0.00005745,0.03311385,9.80305312,-0.00000000,0.00005404,0.00004897,nan,nan,nan
0.06143855,1527934.13538273,-4464930.21738222,4276353.52387501,3.78143203,1.29883277,-0.00596154,0.90179701,-0.39979036,-0.06650846,-0.15002145,0.00005806,0.03311385,9.80305312,-0.00000000,0.00005404,0.00004897,nan,nan,nan
0.06168880,1527934.51352593,-4464930.08749894,4276353.52327886,3.78141796,1.29884995,-0.00598840,0.90179701,-0.39979036,-0.06650846,-0.15002145,0.00005868,0.03311385,9.80305312,-0.00000000,0.00005404,0.00004897,nan,nan,nan
0.06193868,1527934.89166773,-4464929.95761395,4276353.52268002,3.78140388,1.29886713,-0.00601527,0.90179701,-0.39979036,-0.06650846,-0.15002145,0.00005929,0.03311385,9.80305312,-0.00000000,0.00005404,0.00004897,nan,nan,nan
0.06218846,1527935.26980812,-4464929.82772724,4276353.52207849,3.78138981,1.29888431,-0.00604213,0.90179701,-0.39979036,-0.06650846,-0.15002145,0.00005991,0.03311385,9.80305312,-0.00000000,0.00005404,0.00004897,nan,nan,nan
0.06243818,1527935.64794710,-4464929.69783880,4276353.52147428,3.78137574,1.29890149,-0.00606900,0.90179701,-0.39979036,-0.06650846,-0.15002145,0.00006052,0.03311385,9.80305312,-0.00000000,0.00005404,0.00004897,nan,nan,nan
0.06268901,1527936.02608467,-4464929.56794866,4276353.52086738,3.78136167,1.29891867,-0.00609586,0.90179701,-0.39979036,-0.06650846,-0.15002145,0.00006113,0.03311385,9.80305312,-0.00000000,0.00005404,0.00004897,nan,nan,nan
0.06293953,1527936.40422084,-4464929.43805679,4276353.52025779,3.78134760,1.29893585,-0.00612273,0.90179701,-0.39979036,-0.06650846,-0.15002145,0.00006175,0.03311385,9.80305312,-0.00000000,0.00005404,0.00004897,nan,nan,nan
0.06319064,1527936.78235560,-4464929.30816320,4276353.51964552,3.78133353,1.29895304,-0.00614959,0.90179701,-0.39979036,-0.06650846,-0.15002145,0.00006236,0.03311385,9.80305312,-0.00000000,0.00005404,0.00004897,nan,nan,nan
0.06344204,1527937.16048895,-4464929.17826790,4276353.51903056,3.78131946,1.29897022,-0.00617646,0.90179701,-0.39979036,-0.06650846,-0.15002145,0.00006298,0.03311385,9.80305312,-0.00000000,0.00005404,0.00004897,nan,nan,nan
0.06369159,1527937.53862090,-4464929.04837088,4276353.51841291,3.78130539,1.29898740,-0.00620332,0.90179701,-0.39979036,-0.06650846,-0.15002145,0.00006359,0.03311385,9.80305312,-0.00000000,0.00005404,0.00004897,nan,nan,nan
0.06394758,1527937.91675144,-4464928.91847214,4276353.51779258,3.78129132,1.29900458,-0.00623019,0.90179701,-0.39979036,-0.06650846,-0.15002145,0.00006420,0.03311385,9.80305312,-0.00000000,0.00005404,0.00004897,nan,nan,nan
0.06419751,1527938.29488057,-4464928.78857168,4276353.51716956,3.78127725,1.29902177,-0.00625705,0.90179701,-0.39979036,-0.06650846,-0.15002145,0.00006482,0.03311385,9.80305312,-0.00000000,0.00005404,0.00004897,nan,nan,nan
0.06444852,1527938.67300829,-4464928.65866950,4276353.51654386,3.78126318,1.29903895,-0.00628392,0.90179701,-0.39979036,-0.06650846,-0.15002145,0.00006543,0.03311385,9.80305312,-0.00000000,0.00005404,0.00004897,nan,nan,nan
0.06469801,1527939.05113461,-4464928.52876561,4276353.51591547,3.78124911,1.29905614,-0.00631079,0.90179701,-0.39979036,-0.06650846,-0.15002145,0.00006604,0.03311385,9.80305312,-0.00000000,0.00005404,0.00004897,nan,nan,nan
0.06494777,1527939.42925952,-4464928.39886000,4276353.51528439,3.78123504,1.29907332,-0.00633765,0.90179701,-0.39979036,-0.06650846,-0.15002145,0.00006666,0.03311385,9.80305312,-0.00000000,0.00005404,0.00004897,nan,nan,nan
0.06519643,1527939.80738303,-4464928.26895266,4276353.51465062,3.78122097,1.29909051,-0.00636452,0.90179701,-0.39979036,-0.06650846,-0.15002145,0.00006727,0.03311385,9.80305312,-0.00000000,0.00005404,0.00004897,nan,nan,nan
0.06544588,1527940.18550512,-4464928.13904361,4276353.51401417,3.78120690,1.29910769,-0.00639139,0.90179701,-0.39979036,-0.06650846,-0.15002145,0.00006789,0.03311385,9.80305312,-0.00000000,0.00005404,0.00004897,nan,nan,nan
0.06569594,1527940.56362581,-4464928.00913284,4276353.51337503,3.78119283,1.29912488,-0.00641825,0.90179701,-0.39979036,-0.06650846,-0.15002145,0.00006850,0.03311385,9.80305312,-0.00000000,0.00005404,0.00004897,nan,nan,nan
0.06594585,1527940.94174510,-4464927.87922036,4276353.51273321,3.78117876,1.29914207,-0.00644512,0.90179701,-0.39979036,-0.06650846,-0.15002145,0.00006911,0.03311385,9.80305312,-0.00000000,0.00005404,0.00004897,nan,nan,nan
0.06619643,1527941.31986297,-4464927.74930615,4276353.51208869,3.78116469,1.29915925,-0.00647199,0.90179701,-0.39979036,-0.06650846,-0.15002145,0.00006973,0.03311385,9.80305312,-0.00000000,0.00005404,0.00004897,nan,nan,nan
0.06644605,1527941.69797944,-4464927.61939022,4276353.51144150,3.78115063,1.29917644,-0.00649885,0.90179701,-0.39979036,-0.06650846,-0.15002145,0.00007034,0.03311385,9.80305312,-0.00000000,0.00005404,0.00004897,nan,nan,nan
0.06669571,1527942.07609450,-4464927.48947258,4276353.51079161,3.78113656,1.29919363,-0.00652572,0.90179701,-0.39979036,-0.06650846,-0.15002145,0.00007095,0.03311385,9.80305312,-0.00000000,0.00005404,0.00004897,nan,nan,nan
0.06694575,1527942.45420816,-4464927.35955322,4276353.51013904,3.78112249,1.29921082,-0.00655259,0.90179701,-0.39979036,-0.06650846,-0.15002145,0.00007157,0.03311385,9.80305312,-0.00000000,0.00005404,0.00004897,nan,nan,nan
0.06719443,1527942.83232041,-4464927.22963213,4276353.50948378,3.78110842,1.29922800,-0.00657946,0.90179701,-0.39979036,-0.06650846,-0.15002145,0.00007218,0.03311385,9.80305312,-0.00000000,0.00005404,0.00004897,nan,nan,nan
0.06744404,1527943.21043125,-4464927.09970933,4276353.50882583,3.78109436,1.29924519,-0.00660632,0.90179701,-0.39979036,-0.06650846,-0.15002145,0.00007280,0.03311385,9.80305312,-0.00000000,0.00005404,0.00004897,nan,nan,nan
0.06769159,1527943.58854069,-4464926.96978481,4276353.50816520,3.78108029,1.29926238,-0.00663319,0.90179701,-0.39979036,-0.06650846,-0.15002145,0.00007341,0.03311385,9.80305312,-0.00000000,0.00005404,0.00004897,nan,nan,nan
0.06794108,1527943.96664872,-4464926.83985858,4276353.50750188,3.78106622,1.29927957,-0.00666006,0.90179701,-0.39979036,-0.06650846,-0.15002145,0.00007402,0.03311385,9.80305312,-0.00000000,0.00005404,0.00004897,nan,nan,nan
0.06819256,1527944.34475534,-4464926.70993062,4276353.50683588,3.78105215,1.29929676,-0.00668693,0.90179701,-0.39979036,-0.06650846,-0.15002145,0.00007464,0.03311385,9.80305312,-0.00000000,0.00005404,0.00004897,nan,nan,nan
0.06844076,1527944.72286055,-4464926.58000094,4276353.50616718,3.78103809,1.29931395,-0.00671380,0.90179701,-0.39979036,-0.06650846,-0.15002145,0.00007525,0.03311385,9.80305312,-0.00000000,0.00005404,0.00004897,nan,nan,nan
0.06868869,1527945.10096436,-4464926.45006955,4276353.50549580,3.78102402,1.29933114,-0.00674066,0.90179701,-0.39979036,-0.06650846,-0.15002145,0.00007587,0.03311385,9.80305312,-0.00000000,0.00005404,0.00004897,nan,nan,nan
0.06893892,1527945.47906676,-4464926.32013643,4276353.50482174,3.78100996,1.29934834,-0.00676753,0.90179701,-0.39979036,-0.06650846,-0.15002145,0.00007648,0.03311385,9.80305312,-0.00000000,0.00005404,0.00004897,nan,nan,nan
0.06918713,1527945.85716776,-4464926.19020160,4276353.50414499,3.78099589,1.29936553,-0.00679440,0.90179701,-0.39979036,-0.06650846,-0.15002145,0.00007709,0.03311385,9.80305312,-0.00000000,0.00005404,0.00004897,nan,nan,nan
0.06943810,1527946.23526735,-4464926.06026505,4276353.50346555,3.78098182,1.29938272,-0.00682127,0.90179701,-0.39979036,-0.06650846,-0.15002145,0.00007771,0.03311385,9.80305312,-0.00000000,0.00005404,0.00004897,nan,nan,nan
0.06968986,1527946.61336553,-4464925.93032678,4276353.50278342,3.78096776,1.29939991,-0.00684814,0.90179701,-0.39979036,-0.06650846,-0.15002145,0.00007832,0.03311385,9.80305312,-0.00000000,0.00005404,0.00004897,nan,nan,nan
0.06994355,1527946.99146231,-4464925.80038678,4276353.50209861,3.78095369,1.29941710,-0.00687501,0.90179701,-0.39979036,-0.06650846,-0.15002145,0.00007893,0.03311385,9.80305312,-0.00000000,0.00005404,0.00004897,nan,nan,nan
0.07019832,1527947.36955768,-4464925.67044507,4276353.50141110,3.78093963,1.29943430,-0.00690188,0.90179701,-0.39979036,-0.06650846,-0.15002145,0.00007955,0.03311385,9.80305312,-0.00000000,0.00005404,0.00004897,nan,nan,nan
0.07045410,1527947.74765164,-4464925.54050164,4276353.50072092,3.78092556,1.29945149,-0.00692875,0.90179701,-0.39979036,-0.06650846,-0.15002145,0.00008016,0.03311385,9.80305312,-0.00000000,0.00005404,0.00004897,nan,nan,nan
0.07070465,1527948.12574420,-4464925.41055650,4276353.50002804,3.78091150,1.29946869,-0.00695562,0.90179701,-0.39979036,-0.06650846,-0.15002145,0.00008078,0.03311385,9.80305312,-0.00000000,0.00005404,0.00004897,nan,nan,nan
0.07096462,1527948.50383535,-4464925.28060963,4276353.49933248,3.78089743,1.29948588,-0.00698249,0.90179701,-0.39979036,-0.06650846,-0.15002145,0.00008139,0.03311385,9.80305312,-0.00000000,0.00005404,0.00004897,nan,nan,nan
0.07133385,1527948.88192509,-4464925.15066104,4276353.49863423,3.78088337,1.29950308,-0.00700936,0.90179701,-0.39979036,-0.06650846,-0.15002145,0.00008200,0.03311385,9.80305312,-0.00000000,0.00005404,0.00004897,nan,nan,nan
0.07161528,1527949.26001343,-4464925.02071073,4276353.49793329,3.78086931,1.29952027,-0.00703623,0.90179701,-0.39979036,-0.06650846,-0.15002145,0.00008262,0.03311385,9.80305312,-0.00000000,0.00005404,0.00004897,nan,nan,nan
0.07188022,1527949.63810036,-4464924.89075870,4276353.49722967,3.78085524,1.29953747,-0.00706310,0.90179701,-0.39979036,-0.06650846,-0.15002145,0.00008323,0.03311385,9.80305312,-0.00000000,0.00005404,0.00004897,nan,nan,nan
0.07214056,1527950.01618588,-4464924.76080496,4276353.49652336,3.78084118,1.29955466,-0.00708997,0.90179701,-0.39979036,-0.06650846,-0.15002145,0.00008385,0.03311385,9.80305312,-0.00000000,0.00005404,0.00004897,nan,nan,nan
0.07240112,1527950.39427000,-4464924.63084949,4276353.49581436,3.78082712,1.29957186,-0.00711684,0.90179701,-0.39979036,-0.06650846,-0.15002145,0.00008446,0.03311385,9.80305312,-0.00000000,0.00005404,0.00004897,nan,nan,nan
0.07265519,1527950.77235271,-4464924.50089231,4276353.49510268,3.78081305,1.29958906,-0.00714371,0.90179701,-0.39979036,-0.06650846,-0.15002145,0.00008507,0.03311385,9.80305312,-0.00000000,0.00005404,0.00004897,nan,nan,nan
0.07291140,1527951.15043402,-4464924.37093340,4276353.49438831,3.78079899,1.29960625,-0.00717058,0.90179701,-0.39979036,-0.06650846,-0.15002145,0.00008569,0.03311385,9.80305312,-0.00000000,0.00005404,0.00004897,nan,nan,nan
0.07318312,1527951.52851391,-4464924.24097278,4276353.49367125,3.78078493,1.29962345,-0.00719745,0.90179701,-0.39979036,-0.06650846,-0.15002145,0.00008630,0.03311385,9.80305312,-0.00000000,0.00005404,0.00004897,nan,nan,nan
0.07343802,1527951.90659241,-4464924.11101043,4276353.49295150,3.78077086,1.29964065,-0.00722433,0.90179701,-0.39979036,-0.06650846,-0.15002145,0.00008691,0.03311385,9.80305312,-0.00000000,0.00005404,0.00004897,nan,nan,nan
0.07369087,1527952.28466949,-4464923.98104636,4276353.49222907,3.78075680,1.29965785,-0.00725120,0.90179701,-0.39979036,-0.06650846,-0.15002145,0.00008753,0.03311385,9.80305312,-0.00000000,0.00005404,0.00004897,nan,nan,nan
0.07394403,1527952.66274517,-4464923.85108058,4276353.49150395,3.78074274,1.29967505,-0.00727807,0.90179701,-0.39979036,-0.06650846,-0.15002145,0.00008814,0.03311385,9.80305312,-0.00000000,0.00005404,0.00004897,nan,nan,nan
0.07419609,1527953.04081945,-4464923.72111307,4276353.49077615,3.78072868,1.29969225,-0.00730494,0.90179701,-0.39979036,-0.06650846,-0.15002145,0.00008876,0.03311385,9.80305312,-0.00000000,0.00005404,0.00004897,nan,nan,nan
0.07444872,1527953.41889232,-4464923.59114385,4276353.49004565,3.78071462,1.29970945,-0.00733181,0.90179701,-0.39979036,-0.06650846,-0.15002145,0.00008937,0.03311385,9.80305312,-0.00000000,0.00005404,0.00004897,nan,nan,nan
0.07470111,1527953.79696378,-4464923.46117291,4276353.48931247,3.78070055,1.29972665,-0.00735869,0.90179701,-0.39979036,-0.06650846,-0.15002145,0.00008998,0.03311385,9.80305312,-0.00000000,0.00005404,0.00004897,nan,nan,nan
0.07495299,1527954.17503383,-4464923.33120024,4276353.48857660,3.78068649,1.29974385,-0.00738556,0.90179701,-0.39979036,-0.06650846,-0.15002145,0.00009060,0.03311385,9.80305312,-0.00000000,0.00005404,0.00004897,nan,nan,nan
0.07520600,1527954.55310248,-4464923.20122586,4276353.48783805,3.78067243,1.29976105,-0.00741243,0.90179701,-0.39979036,-0.06650846,-0.15002145,0.00009121,0.03311385,9.80305312,-0.00000000,0.00005404,0.00004897,nan,nan,nan
0.07545909,1527954.93116973,-4464923.07124975,4276353.48709680,3.78065837,1.29977825,-0.00743930,0.90179701,-0.39979036,-0.06650846,-0.15002145,0.00009182,0.03311385,9.80305312,-0.00000000,0.00005404,0.00004897,nan,nan,nan
0.07571377,1527955.30923556,-4464922.94127193,4276353.48635287,3.78064431,1.29979545,-0.00746618,0.90179701,-0.39979036,-0.06650846,-0.15002145,0.00009244,0.03311385,9.80305312,-0.00000000,0.00005404,0.00004897,nan,nan,nan
0.07596723,1527955.68729999,-4464922.81129238,4276353.48560626,3.78063025,1.29981266,-0.00749305,0.90179701,-0.39979036,-0.06650846,-0.15002145,0.00009305,0.03311385,9.80305312,-0.00000000,0.00005404,0.00004897,nan,nan,nan
0.07622171,1527956.06536302,-4464922.68131112,4276353.48485695,3.78061619,1.29982986,-0.00751992,0.90179701,-0.39979036,-0.06650846,-0.15002145,0.00009367,0.03311385,9.80305312,-0.00000000,0.00005404,0.00004897,nan,nan,nan
0.07647428,1527956.44342464,-4464922.55132813,4276353.48410496,3.78060213,1.29984706,-0.00754680,0.90179701,-0.39979036,-0.06650846,-0.15002145,0.00009428,0.03311385,9.80305312,-0.00000000,0.00005404,0.00004897,nan,nan,nan
0.07672763,1527956.82148485,-4464922.42134342,4276353.48335028,3.78058807,1.29986427,-0.00757367,0.90179701,-0.39979036,-0.06650846,-0.15002145,0.00009489,0.03311385,9.80305312,-0.00000000,0.00005404,0.00004897,nan,nan,nan
0.07698142,1527957.19954366,-4464922.29135700,4276353.48259291,3.78057401,1.29988147,-0.00760054,0.90179701,-0.39979036,-0.06650846,-0.15002145,0.00009551,0.03311385,9.80305312,-0.00000000,0.00005404,0.00004897,nan,nan,nan
0.07723629,1527957.57760106,-4464922.16136885,4276353.48183286,3.78055995,1.29989868,-0.00762742,0.90179701,-0.39979036,-0.06650846,-0.15002145,0.00009612,0.03311385,9.80305312,-0.00000000,0.00005404,0.00004897,nan,nan,nan
0.07748839,1527957.95565705,-4464922.03137898,4276353.48107011,3.78054589,1.29991588,-0.00765429,0.90179701,-0.39979036,-0.06650846,-0.15002145,0.00009674,0.03311385,9.80305312,-0.00000000,0.00005404,0.00004897,nan,nan,nan
0.07773956,1527958.33371164,-4464921.90138739,4276353.48030469,3.78053183,1.29993309,-0.00768117,0.90179701,-0.39979036,-0.06650846,-0.15002145,0.00009735,0.03311385,9.80305312,-0.00000000,0.00005404,0.00004897,nan,nan,nan
0.07799292,1527958.71176482,-4464921.77139409,4276353.47953657,3.78051777,1.29995029,-0.00770804,0.90179701,-0.39979036,-0.06650846,-0.15002145,0.00009796,0.03311385,9.80305312,-0.00000000,0.00005404,0.00004897,nan,nan,nan
0.07824579,1527959.08981660,-4464921.64139906,4276353.47876576,3.78050371,1.29996750,-0.00773492,0.90179701,-0.39979036,-0.06650846,-0.15002145,0.00009858,0.03311385,9.80305312,-0.00000000,0.00005404,0.00004897,nan,nan,nan
0.07849866,1527959.46786697,-4464921.51140231,4276353.47799227,3.78048965,1.29998471,-0.00776179,0.90179701,-0.39979036,-0.06650846,-0.15002145,0.00009919,0.03311385,9.80305312,-0.00000000,0.00005404,0.00004897,nan,nan,nan
0.07875046,1527959.84591594,-4464921.38140384,4276353.47721609,3.78047560,1.30000191,-0.00778867,0.90179701,-0.39979036,-0.06650846,-0.15002145,0.00009980,0.03311385,9.80305312,-0.00000000,0.00005404,0.00004897,nan,nan,nan
0.07900255,1527960.22396350,-4464921.25140365,4276353.47643723,3.78046154,1.30001912,-0.00781554,0.90179701,-0.39979036,-0.06650846,-0.15002145,0.00010042,0.03311385,9.80305312,-0.00000000,0.00005404,0.00004897,nan,nan,nan
0.07925481,1527960.60200965,-4464921.12140173,4276353.47565567,3.78044748,1.30003633,-0.00784242,0.90179701,-0.39979036,-0.06650846,-0.15002145,0.00010103,0.03311385,9.80305312,-0.00000000,0.00005404,0.00004897,nan,nan,nan
0.07950681,1527960.98005440,-4464920.99139810,4276353.47487143,3.78043342,1.30005354,-0.00786929,0.90179701,-0.39979036,-0.06650846,-0.15002145,0.00010165,0.03311385,9.80305312,-0.00000000,0.00005404,0.00004897,nan,nan,nan
0.07975944,1527961.35809774,-4464920.86139275,4276353.47408450,3.78041936,1.30007075,-0.00789617,0.90179701,-0.39979036,-0.06650846,-0.15002145,0.00010226,0.03311385,9.80305312,-0.00000000,0.00005404,0.00004897,nan,nan,nan
0.08001128,1527961.73613968,-4464920.73138567,4276353.47329488,3.78040531,1.30008796,-0.00792305,0.90179701,-0.39979036,-0.06650846,-0.15002145,0.00010287,0.03311385,9.80305312,-0.00000000,0.00005404,0.00004897,nan,nan,nan
0.08026412,1527962.11418021,-4464920.60137688,4276353.47250258,3.78039125,1.30010517,-0.00794992,0.90179701,-0.39979036,-0.06650846,-0.15002145,0.00010349,0.03311385,9.80305312,-0.00000000,0.00005404,0.00004897,nan,nan,nan
0.08051511,1527962.49221933,-4464920.47136636,4276353.47170759,3.78037719,1.30012238,-0.00797680,0.90179701,-0.39979036,-0.06650846,-0.15002145,0.00010410,0.03311385,9.80305312,-0.00000000,0.00005404,0.00004897,nan,nan,nan
0.08076608,1527962.87025705,-4464920.34135412,4276353.47090991,3.78036314,1.30013959,-0.00800368,0.90179701,-0.39979036,-0.06650846,-0.15002145,0.00010472,0.03311385,9.80305312,-0.00000000,0.00005404,0.00004897,nan,nan,nan
0.08101734,1527963.24829337,-4464920.21134016,4276353.47010954,3.78034908,1.30015680,-0.00803055,0.90179701,-0.39979036,-0.06650846,-0.15002145,0.00010533,0.03311385,9.80305312,-0.00000000,0.00005404,0.00004897,nan,nan,nan
0.08127559,1527963.62632828,-4464920.08132449,4276353.46930649,3.78033502,1.30017401,-0.00805743,0.90179701,-0.39979036,-0.06650846,-0.15002145,0.00010594,0.03311385,9.80305312,-0.00000000,0.00005404,0.00004897,nan,nan,nan
0.08153813,1527964.00436178,-4464919.95130708,4276353.46850074,3.78032097,1.30019122,-0.00808431,0.90179701,-0.39979036,-0.06650846,-0.15002145,0.00010656,0.03311385,9.80305312,-0.00000000,0.00005404,0.00004897,nan,nan,nan
0.08179331,1527964.38239387,-4464919.82128796,4276353.46769231,3.78030691,1.30020843,-0.00811118,0.90179701,-0.39979036,-0.06650846,-0.15002145,0.00010717,0.03311385,9.80305312,-0.00000000,0.00005404,0.00004897,nan,nan,nan
0.08204544,1527964.76042457,-4464919.69126712,4276353.46688119,3.78029286,1.30022565,-0.00813806,0.90179701,-0.39979036,-0.06650846,-0.15002145,0.00010778,0.03311385,9.80305312,-0.00000000,0.00005404,0.00004897,nan,nan,nan
0.08229850,1527965.13845385,-4464919.56124455,4276353.46606739,3.78027880,1.30024286,-0.00816494,0.90179701,-0.39979036,-0.06650846,-0.15002145,0.00010840,0.03311385,9.80305312,-0.00000000,0.00005404,0.00004897,nan,nan,nan
0.08255014,1527965.51648173,-4464919.43122027,4276353.46525089,3.78026474,1.30026007,-0.00819182,0.90179701,-0.39979036,-0.06650846,-0.15002145,0.00010901,0.03311385,9.80305312,-0.00000000,0.00005404,0.00004897,nan,nan,nan
0.08280165,1527965.89450821,-4464919.30119426,4276353.46443171,3.78025069,1.30027729,-0.00821870,0.90179701,-0.39979036,-0.06650846,-0.15002145,0.00010963,0.03311385,9.80305312,-0.00000000,0.00005404,0.00004897,nan,nan,nan
0.08305299,1527966.27253327,-4464919.17116653,4276353.46360984,3.78023663,1.30029450,-0.00824557,0.90179701,-0.39979036,-0.06650846,-0.15002145,0.00011024,0.03311385,9.80305312,-0.00000000,0.00005404,0.00004897,nan,nan,nan
0.08330433,1527966.65055694,-4464919.04113708,4276353.46278528,3.78022258,1.30031172,-0.00827245,0.90179701,-0.39979036,-0.06650846,-0.15002145,0.00011085,0.03311385,9.80305312,-0.00000000,0.00005404,0.00004897,nan,nan,nan
0.08355691,1527967.02857920,-4464918.91110591,4276353.46195804,3.78020852,1.30032893,-0.00829933,0.90179701,-0.39979036,-0.06650846,-0.15002145,0.00011147,0.03311385,9.80305312,-0.00000000,0.00005404,0.00004897,nan,nan,nan
0.08380898,1527967.40660005,-4464918.78107302,4276353.46112810,3.78019447,1.30034615,-0.00832621,0.90179701,-0.39979036,-0.06650846,-0.15002145,0.00011208,0.03311385,9.80305312,-0.00000000,0.00005404,0.00004897,nan,nan,nan
0.08406019,1527967.78461950,-4464918.65103840,4276353.46029548,3.78018042,1.30036337,-0.00835309,0.90179701,-0.39979036,-0.06650846,-0.15002145,0.00011269,0.03311385,9.80305312,-0.00000000,0.00005404,0.00004897,nan,nan,nan
0.08431153,1527968.16263754,-4464918.52100206,4276353.45946017,3.78016636,1.30038058,-0.00837997,0.90179701,-0.39979036,-0.06650846,-0.15002145,0.00011331,0.03311385,9.80305312,-0.00000000,0.00005404,0.00004897,nan,nan,nan
0.08456171,1527968.54065417,-4464918.39096401,4276353.45862218,3.78015231,1.30039780,-0.00840685,0.90179701,-0.39979036,-0.06650846,-0.15002145,0.00011392,0.03311385,9.80305312,-0.00000000,0.00005404,0.00004897,nan,nan,nan
0.08481235,1527968.91866940,-4464918.26092423,4276353.45778149,3.78013825,1.30041502,-0.00843373,0.90179701,-0.39979036,-0.06650846,-0.15002145,0.00011454,0.03311385,9.80305312,-0.00000000,0.00005404,0.00004897,nan,nan,nan
0.08506253,1527969.29668323,-4464918.13088272,4276353.45693812,3.78012420,1.30043224,-0.00846061,0.90179701,-0.39979036,-0.06650846,-0.15002145,0.00011515,0.03311385,9.80305312,-0.00000000,0.00005404,0.00004897,nan,nan,nan
0.08531396,1527969.67469565,-4464918.00083950,4276353.45609206,3.78011015,1.30044946,-0.00848749,0.90179701,-0.39979036,-0.06650846,-0.15002145,0.00011576,0.03311385,9.80305312,-0.00000000,0.00005404,0.00004897,nan,nan,nan
0.08556534,1527970.05270666,-4464917.87079456,4276353.45524331,3.78009610,1.30046668,-0.00851437,0.90179701,-0.39979036,-0.06650846,-0.15002145,0.00011638,0.03311385,9.80305312,-0.00000000,0.00005404,0.00004897,nan,nan,nan
0.08581562,1527970.43071627,-4464917.74074789,4276353.45439187,3.78008204,1.30048390,-0.00854125,0.90179701,-0.39979036,-0.06650846,-0.15002145,0.00011699,0.03311385,9.80305312,-0.00000000,0.00005404,0.00004897,nan,nan,nan
0.08606566,1527970.80872448,-4464917.61069950,4276353.45353775,3.78006799,1.30050112,-0.00856813,0.90179701,-0.39979036,-0.06650846,-0.15002145,0.00011761,0.03311385,9.80305312,-0.00000000,0.00005404,0.00004897,nan,nan,nan
0.08631730,1527971.18673128,-4464917.48064939,4276353.45268094,3.78005394,1.30051834,-0.00859501,0.90179701,-0.39979036,-0.06650846,-0.15002145,0.00011822,0.03311385,9.80305312,-0.00000000,0.00005404,0.00004897,nan,nan,nan
0.08656921,1527971.56473667,-4464917.35059755,4276353.45182144,3.78003988,1.30053556,-0.00862189,0.90179701,-0.39979036,-0.06650846,-0.15002145,0.00011883,0.03311385,9.80305312,-0.00000000,0.00005404,0.00004897,nan,nan,nan
0.08682009,1527971.94274066,-4464917.22054400,4276353.45095925,3.78002583,1.30055278,-0.00864877,0.90179701,-0.39979036,-0.06650846,-0.15002145,0.00011945,0.03311385,9.80305312,-0.00000000,0.00005404,0.00004897,nan,nan,nan
0.08707162,1527972.32074324,-4464917.09048872,4276353.45009437,3.78001178,1.30057000,-0.00867566,0.90179701,-0.39979036,-0.06650846,-0.15002145,0.00012006,0.03311385,9.80305312,-0.00000000,0.00005404,0.00004897,nan,nan,nan
0.08732204,1527972.69874442,-4464916.96043172,4276353.44922680,3.77999773,1.30058722,-0.00870254,0.90179701,-0.39979036,-0.06650846,-0.15002145,0.00012067,0.03311385,9.80305312,-0.00000000,0.00005404,0.00004897,nan,nan,nan
0.08757347,1527973.07674419,-4464916.83037300,4276353.44835655,3.77998368,1.30060445,-0.00872942,0.90179701,-0.39979036,-0.06650846,-0.15002145,0.00012129,0.03311385,9.80305312,-0.00000000,0.00005404,0.00004897,nan,nan,nan
0.08782591,1527973.45474256,-4464916.70031255,4276353.44748361,3.77996963,1.30062167,-0.00875630,0.90179701,-0.39979036,-0.06650846,-0.15002145,0.00012190,0.03311385,9.80305312,-0.00000000,0.00005404,0.00004897,nan,nan,nan
0.08807874,1527973.83273952,-4464916.57025039,4276353.44660798,3.77995558,1.30063889,-0.00878318,0.90179701,-0.39979036,-0.06650846,-0.15002145,0.00012252,0.03311385,9.80305312,-0.00000000,0.00005404,0.00004897,nan,nan,nan
0.08832997,1527974.21073508,-4464916.44018650,4276353.44572966,3.77994152,1.30065612,-0.00881007,0.90179701,-0.39979036,-0.06650846,-0.15002145,0.00012313,0.03311385,9.80305312,-0.00000000,0.00005404,0.00004897,nan,nan,nan
0.08858179,1527974.58872923,-4464916.31012088,4276353.44484865,3.77992747,1.30067334,-0.00883695,0.90179701,-0.39979036,-0.06650846,-0.15002145,0.00012374,0.03311385,9.80305312,-0.00000000,0.00005404,0.00004897,nan,nan,nan
0.08883355,1527974.96672198,-4464916.18005355,4276353.44396496,3.77991342,1.30069057,-0.00886383,0.90179701,-0.39979036,-0.06650846,-0.15002145,0.00012436,0.03311385,9.80305312,-0.00000000,0.00005404,0.00004897,nan,nan,nan
0.08908630,1527975.34471332,-4464916.04998449,4276353.44307857,3.77989937,1.30070779,-0.00889072,0.90179701,-0.39979036,-0.06650846,-0.15002145,0.00012497,0.03311385,9.80305312,-0.00000000,0.00005404,0.00004897,nan,nan,nan
0.08933948,1527975.72270326,-4464915.91991371,4276353.44218950,3.77988532,1.30072502,-0.00891760,0.90179701,-0.39979036,-0.06650846,-0.15002145,0.00012559,0.03311385,9.80305312,-0.00000000,0.00005404,0.00004897,nan,nan,nan
0.08959072,1527976.10069179,-4464915.78984121,4276353.44129774,3.77987127,1.30074225,-0.00894448,0.90179701,-0.39979036,-0.06650846,-0.15002145,0.00012620,0.03311385,9.80305312,-0.00000000,0.00005404,0.00004897,nan,nan,nan
0.08984140,1527976.47867892,-4464915.65976699,4276353.44040329,3.77985722,1.30075947,-0.00897137,0.90179701,-0.39979036,-0.06650846,-0.15002145,0.00012681,0.03311385,9.80305312,-0.00000000,0.00005404,0.00004897,nan,nan,nan
0.09009325,1527976.85666464,-4464915.52969104,4276353.43950616,3.77984317,1.30077670,-0.00899825,0.90179701,-0.39979036,-0.06650846,-0.15002145,0.00012743,0.03311385,9.80305312,-0.00000000,0.00005404,0.00004897,nan,nan,nan
0.09034440,1527977.23464896,-4464915.39961337,4276353.43860633,3.77982912,1.30079393,-0.00902513,0.90179701,-0.39979036,-0.06650846,-0.15002145,0.00012804,0.03311385,9.80305312,-0.00000000,0.00005404,0.00004897,nan,nan,nan
0.09059800,1527977.61263187,-4464915.26953398,4276353.43770382,3.77981508,1.30081116,-0.00905202,0.90179701,-0.39979036,-0.06650846,-0.15002145,0.00012865,0.03311385,9.80305312,-0.00000000,0.00005404,0.00004897,nan,nan,nan
0.09085021,1527977.99061338,-4464915.13945286,4276353.43679862,3.77980103,1.30082839,-0.00907890,0.90179701,-0.39979036,-0.06650846,-0.15002145,0.00012927,0.03311385,9.80305312,-0.00000000,0.00005404,0.00004897,nan,nan,nan
0.09111168,1527978.36859348,-4464915.00937002,4276353.43589073,3.77978698,1.30084562,-0.00910579,0.90179701,-0.39979036,-0.06650846,-0.15002145,0.00012988,0.03311385,9.80305312,-0.00000000,0.00005404,0.00004897,nan,nan,nan
0.09136492,1527978.74657218,-4464914.87928546,4276353.43498015,3.77977293,1.30086285,-0.00913267,0.90179701,-0.39979036,-0.06650846,-0.15002145,0.00013050,0.03311384,9.80305312,-0.00000000,0.00005404,0.00004897,nan,nan,nan
0.09161642,1527979.12454947,-4464914.74919917,4276353.43406688,3.77975888,1.30088008,-0.00915956,0.90179701,-0.39979036,-0.06650846,-0.15002145,0.00013111,0.03311384,9.80305312,-0.00000000,0.00005404,0.00004897,nan,nan,nan
0.09186807,1527979.50252536,-4464914.61911117,4276353.43315093,3.77974483,1.30089731,-0.00918644,0.90179701,-0.39979036,-0.06650846,-0.15002145,0.00013172,0.03311384,9.80305312,-0.00000000,0.00005404,0.00004897,nan,nan,nan
0.09211964,1527979.88049984,-4464914.48902143,4276353.43223228,3.77973078,1.30091454,-0.00921333,0.90179701,-0.39979036,-0.06650846,-0.15002145,0.00013234,0.03311384,9.80305312,-0.00000000,0.00005404,0.00004897,nan,nan,nan
0.09237290,1527980.25847292,-4464914.35892998,4276353.43131095,3.77971674,1.30093177,-0.00924022,0.90179701,-0.39979036,-0.06650846,-0.15002145,0.00013295,0.03311384,9.80305312,-0.00000000,0.00005404,0.00004897,nan,nan,nan
0.09262373,1527980.63644460,-4464914.22883680,4276353.43038693,3.77970269,1.30094901,-0.00926710,0.90179701,-0.39979036,-0.06650846,-0.15002145,0.00013356,0.03311384,9.80305312,-0.00000000,0.00005404,0.00004897,nan,nan,nan
0.09287592,1527981.01441487,-4464914.09874190,4276353.42946022,3.77968864,1.30096624,-0.00929399,0.90179701,-0.39979036,-0.06650846,-0.15002145,0.00013418,0.03311384,9.80305312,-0.00000000,0.00005404,0.00004897,nan,nan,nan
0.09312733,1527981.39238373,-4464913.96864528,4276353.42853082,3.77967459,1.30098347,-0.00932088,0.90179701,-0.39979036,-0.06650846,-0.15002145,0.00013479,0.03311384,9.80305312,-0.00000000,0.00005404,0.00004897,nan,nan,nan
0.09337805,1527981.77035119,-4464913.83854693,4276353.42759873,3.77966055,1.30100071,-0.00934776,0.90179701,-0.39979036,-0.06650846,-0.15002145,0.00013541,0.03311384,9.80305312,-0.00000000,0.00005404,0.00004897,nan,nan,nan
0.09362816,1527982.14831724,-4464913.70844686,4276353.42666395,3.77964650,1.30101794,-0.00937465,0.90179701,-0.39979036,-0.06650846,-0.15002145,0.00013602,0.03311384,9.80305312,-0.00000000,0.00005404,0.00004897,nan,nan,nan
0.09387916,1527982.52628189,-4464913.57834507,4276353.42572649,3.77963245,1.30103517,-0.00940154,0.90179701,-0.39979036,-0.06650846,-0.15002145,0.00013663,0.03311384,9.80305312,-0.00000000,0.00005404,0.00004897,nan,nan,nan
0.09412943,1527982.90424514,-4464913.44824155,4276353.42478633,3.77961841,1.30105241,-0.00942842,0.90179701,-0.39979036,-0.06650846,-0.15002145,0.00013725,0.03311384,9.80305312,-0.00000000,0.00005404,0.00004897,nan,nan,nan
0.09438222,1527983.28220698,-4464913.31813631,4276353.42384349,3.77960436,1.30106965,-0.00945531,0.90179701,-0.39979036,-0.06650846,-0.15002145,0.00013786,0.03311384,9.80305312,-0.00000000,0.00005404,0.00004897,nan,nan,nan
0.09463443,1527983.66016742,-4464913.18802934,4276353.42289796,3.77959032,1.30108688,-0.00948220,0.90179701,-0.39979036,-0.06650846,-0.15002145,0.00013848,0.03311384,9.80305312,-0.00000000,0.00005404,0.00004897,nan,nan,nan
0.09488794,1527984.03812645,-4464913.05792066,4276353.42194974,3.77957627,1.30110412,-0.00950909,0.90179701,-0.39979036,-0.06650846,-0.15002145,0.00013909,0.03311384,9.80305312,-0.00000000,0.00005404,0.00004897,nan,nan,nan
0.09514072,1527984.41608408,-4464912.92781024,4276353.42099883,3.77956222,1.30112136,-0.00953598,0.90179701,-0.39979036,-0.06650846,-0.15002145,0.00013970,0.03311384,9.80305312,-0.00000000,0.00005404,0.00004897,nan,nan,nan
0.09539340,1527984.79404030,-4464912.79769811,4276353.42004523,3.77954818,1.30113859,-0.00956287,0.90179701,-0.39979036,-0.06650846,-0.15002145,0.00014032,0.03311384,9.80305312,-0.00000000,0.00005404,0.00004897,nan,nan,nan
0.09564707,1527985.17199512,-4464912.66758425,4276353.41908895,3.77953413,1.30115583,-0.00958975,0.90179701,-0.39979036,-0.06650846,-0.15002145,0.00014093,0.03311384,9.80305312,-0.00000000,0.00005404,0.00004897,nan,nan,nan
0.09590058,1527985.54994853,-4464912.53746867,4276353.41812997,3.77952009,1.30117307,-0.00961664,0.90179701,-0.39979036,-0.06650846,-0.15002145,0.00014154,0.03311384,9.80305312,-0.00000000,0.00005404,0.00004897,nan,nan,nan
0.09615170,1527985.92790054,-4464912.40735136,4276353.41716831,3.77950604,1.30119031,-0.00964353,0.90179701,-0.39979036,-0.06650846,-0.15002145,0.00014216,0.03311384,9.80305312,-0.00000000,0.00005404,0.00004897,nan,nan,nan
0.09640310,1527986.30585114,-4464912.27723233,4276353.41620395,3.77949200,1.30120755,-0.00967042,0.90179701,-0.39979036,-0.06650846,-0.15002145,0.00014277,0.03311384,9.80305312,-0.00000000,0.00005404,0.00004897,nan,nan,nan
0.09665394,1527986.68380034,-4464912.14711157,4276353.41523691,3.77947795,1.30122479,-0.00969731,0.90179701,-0.39979036,-0.06650846,-0.15002145,0.00014339,0.03311384,9.80305312,-0.00000000,0.00005404,0.00004897,nan,nan,nan
0.09690543,1527987.06174814,-4464912.01698909,4276353.41426718,3.77946391,1.30124203,-0.00972420,0.90179701,-0.39979036,-0.06650846,-0.15002145,0.00014400,0.03311384,9.80305312,-0.00000000,0.00005404,0.00004897,nan,nan,nan
0.09715658,1527987.43969453,-4464911.88686489,4276353.41329476,3.77944986,1.30125927,-0.00975109,0.90179701,-0.39979036,-0.06650846,-0.15002145,0.00014461,0.03311384,9.80305312,-0.00000000,0.00005404,0.00004897,nan,nan,nan
0.09741036,1527987.81763951,-4464911.75673896,4276353.41231965,3.77943582,1.30127651,-0.00977798,0.90179701,-0.39979036,-0.06650846,-0.15002145,0.00014523,0.03311384,9.80305312,-0.00000000,0.00005404,0.00004897,nan,nan,nan
0.09766264,1527988.19558310,-4464911.62661131,4276353.41134185,3.77942178,1.30129376,-0.00980487,0.90179701,-0.39979036,-0.06650846,-0.15002145,0.00014584,0.03311384,9.80305312,-0.00000000,0.00005404,0.00004897,nan,nan,nan
0.09791467,1527988.57352527,-4464911.49648194,4276353.41036137,3.77940773,1.30131100,-0.00983177,0.90179701,-0.39979036,-0.06650846,-0.15002145,0.00014646,0.03311384,9.80305312,-0.00000000,0.00005404,0.00004897,nan,nan,nan
0.09816573,1527988.95146605,-4464911.36635084,4276353.40937819,3.77939369,1.30132824,-0.00985866,0.90179701,-0.39979036,-0.06650846,-0.15002145,0.00014707,0.03311384,9.80305312,-0.00000000,0.00005404,0.00004897,nan,nan,nan
0.09841796,1527989.32940542,-4464911.23621801,4276353.40839232,3.77937965,1.30134548,-0.00988555,0.90179701,-0.39979036,-0.06650846,-0.15002145,0.00014768,0.03311384,9.80305312,-0.00000000,0.00005404,0.00004897,nan,nan,nan
0.09867127,1527989.70734338,-4464911.10608346,4276353.40740377,3.77936560,1.30136273,-0.00991244,0.90179701,-0.39979036,-0.06650846,-0.15002145,0.00014830,0.03311384,9.80305312,-0.00000000,0.00005404,0.00004897,nan,nan,nan
0.09892262,1527990.08527994,-4464910.97594719,4276353.40641252,3.77935156,1.30137997,-0.00993933,0.90179701,-0.39979036,-0.06650846,-0.15002145,0.00014891,0.03311384,9.80305312,-0.00000000,0.00005404,0.00004897,nan,nan,nan
0.09917250,1527990.46321510,-4464910.84580919,4276353.40541859,3.77933752,1.30139722,-0.00996622,0.90179701,-0.39979036,-0.06650846,-0.15002145,0.00014952,0.03311384,9.80305312,-0.00000000,0.00005404,0.00004897,nan,nan,nan
0.09942313,1527990.84114885,-4464910.71566947,4276353.40442197,3.77932348,1.30141446,-0.00999312,0.90179701,-0.39979036,-0.06650846,-0.15002145,0.00015014,0.03311384,9.80305312,-0.00000000,0.00005404,0.00004897,nan,nan,nan
0.09967443,1527991.21908120,-4464910.58552803,4276353.40342266,3.77930943,1.30143171,-0.01002001,0.90179701,-0.39979036,-0.06650846,-0.15002145,0.00015075,0.03311384,9.80305312,-0.00000000,0.00005404,0.00004897,nan,nan,nan
0.09992600,1527991.59701214,-4464910.45538485,4276353.40242066,3.77929539,1.30144896,-0.01004690,0.90179701,-0.39979036,-0.06650846,-0.15002145,0.00015137,0.03311384,9.80305312,-0.00000000,0.00005404,0.00004897,nan,nan,nan
0.10017686,1527991.97494168,-4464910.32523996,4276353.40141597,3.77928135,1.30146620,-0.01007379,0.90179701,-0.39979036,-0.06650846,-0.15002145,0.00015198,0.03311384,9.80305312,-0.00000000,0.00005404,0.00004897,nan,nan,nan
0.10042953,1527992.35286981,-4464910.19509334,4276353.40040859,3.77231048,1.32181375,0.01361179,0.90118972,-0.40005319,-0.06490877,-0.15362743,0.00015198,0.35311384,9.80305312,-0.00000000,0.00005404,0.08004897,nan,nan,nan
0.10068126,1527992.73010086,-4464910.06291196,4276353.40176977,3.76509763,1.34207778,0.03729663,0.90056801,-0.40030961,-0.06330804,-0.15723095,0.00041436,0.35311158,9.80305313,0.00000043,0.00005403,0.08004897,nan,nan,nan
0.10093457,1527993.10661063,-4464909.92870418,4276353.40549943,3.75764324,1.36225699,0.06097921,0.89993188,-0.40055963,-0.06170630,-0.16083196,0.00067672,0.35310721,9.80305317,0.00000086,0.00005403,0.08004897,nan,nan,nan
0.10119461,1527993.48237495,-4464909.79247849,4276353.41159735,3.74994780,1.38235010,0.08465801,0.89928136,-0.40080324,-0.06010357,-0.16443039,0.00093903,0.35310075,9.80305324,0.00000130,0.00005402,0.08004897,nan,nan,nan
0.10144738,1527993.85736973,-4464909.65424347,4276353.42006315,3.74201180,1.40235582,0.10833151,0.89861645,-0.40104044,-0.05849988,-0.16802619,0.00120129,0.35309219,9.80305334,0.00000173,0.00005401,0.08004897,nan,nan,nan
0.10169946,1527994.23157091,-4464909.51400789,4276353.43089630,3.73383574,1.42227287,0.13199820,0.89793717,-0.40127122,-0.05689525,-0.17161931,0.00146346,0.35308153,9.80305346,0.00000216,0.00005399,0.08004897,nan,nan,nan
0.10195518,1527994.60495448,-4464909.37178061,4276353.44409612,3.72542015,1.44209998,0.15565657,0.89724351,-0.40149558,-0.05528971,-0.17520967,0.00172554,0.35306877,9.80305362,0.00000259,0.00005397,0.08004897,nan,nan,nan
0.10220740,1527994.97749650,-4464909.22757061,4276353.45966178,3.71676557,1.46183588,0.17930508,0.89653550,-0.40171351,-0.05368329,-0.17879724,0.00198752,0.35305392,9.80305380,0.00000302,0.00005395,0.08004897,nan,nan,nan
0.10245922,1527995.34917306,-4464909.08138702,4276353.47759229,3.70787254,1.48147931,0.20294224,0.89581315,-0.40192502,-0.05207601,-0.18238194,0.00224936,0.35303697,9.80305400,0.00000346,0.00005393,0.08004897,nan,nan,nan
0.10271117,1527995.71996031,-4464908.93323909,4276353.49788651,3.69874164,1.50102900,0.22656653,0.89507646,-0.40213010,-0.05046790,-0.18596372,0.00251106,0.35301793,9.80305424,0.00000389,0.00005390,0.08004897,nan,nan,nan
0.10296210,1527996.08983447,-4464908.78313619,4276353.52054316,3.68937344,1.52048372,0.25017642,0.89432545,-0.40232875,-0.04885898,-0.18954253,0.00277260,0.35299680,9.80305450,0.00000432,0.00005386,0.08004897,nan,nan,nan
0.10321376,1527996.45877182,-4464908.63108782,4276353.54556081,3.67976856,1.53984222,0.27377042,0.89356013,-0.40252095,-0.04724927,-0.19311831,0.00303397,0.35297357,9.80305479,0.00000475,0.00005383,0.08004897,nan,nan,nan
0.10346558,1527996.82674867,-4464908.47710359,4276353.57293785,3.66992760,1.55910326,0.29734700,0.89278052,-0.40270672,-0.04563882,-0.19669100,0.00329513,0.35294826,9.80305511,0.00000518,0.00005379,0.08004897,nan,nan,nan
0.10371722,1527997.19374143,-4464908.32119327,4276353.60267255,3.65985118,1.57826561,0.32090466,0.89198662,-0.40288604,-0.04402763,-0.20026054,0.00355609,0.35292085,9.80305545,0.00000561,0.00005374,0.08004897,nan,nan,nan
0.10396886,1527997.55972655,-4464908.16336671,4276353.63476301,3.64953997,1.59732803,0.34444188,0.89117844,-0.40305892,-0.04241573,-0.20382687,0.00381682,0.35289136,9.80305582,0.00000604,0.00005370,0.08004897,nan,nan,nan
0.10422133,1527997.92468055,-4464908.00363390,4276353.66920720,3.63899460,1.61628933,0.36795717,0.89035601,-0.40322535,-0.04080316,-0.20738995,0.00407731,0.35285978,9.80305622,0.00000647,0.00005365,0.08004897,nan,nan,nan
0.10447452,1527998.28858001,-4464907.84200497,4276353.70600292,3.62821577,1.63514827,0.39144901,0.88951934,-0.40338532,-0.03918994,-0.21094970,0.00433753,0.35282612,9.80305665,0.00000690,0.00005359,0.08004897,nan,nan,nan
0.10472638,1527998.65140158,-4464907.67849014,4276353.74514782,3.61720415,1.65390366,0.41491589,0.88866843,-0.40353885,-0.03757609,-0.21450609,0.00459748,0.35279038,9.80305711,0.00000733,0.00005354,0.08004897,nan,nan,nan
0.10497849,1527999.01312200,-4464907.51309978,4276353.78663941,3.60596045,1.67255430,0.43835632,0.88780330,-0.40368591,-0.03596163,-0.21805904,0.00485713,0.35275256,9.80305759,0.00000775,0.00005348,0.08004897,nan,nan,nan
0.10523058,1527999.37371804,-4464907.34584435,4276353.83047504,3.59448539,1.69109899,0.46176879,0.88692397,-0.40382652,-0.03434661,-0.22160850,0.00511648,0.35271267,9.80305810,0.00000818,0.00005341,0.08004897,nan,nan,nan
0.10548111,1527999.73316658,-4464907.17673445,4276353.87665192,3.58277971,1.70953655,0.48515181,0.88603045,-0.40396067,-0.03273103,-0.22515441,0.00537549,0.35267070,9.80305863,0.00000861,0.00005335,0.08004897,nan,nan,nan
0.10573332,1528000.09144455,-4464907.00578079,4276353.92516710,3.57084414,1.72786580,0.50850386,0.88512275,-0.40408835,-0.03111493,-0.22869672,0.00563416,0.35262666,9.80305920,0.00000904,0.00005327,0.08004897,nan,nan,nan
0.10598461,1528000.44852897,-4464906.83299421,4276353.97601749,3.55867946,1.74608557,0.53182347,0.88420089,-0.40420956,-0.02949833,-0.23223538,0.00589247,0.35258056,9.80305979,0.00000946,0.00005320,0.08004897,nan,nan,nan
0.10623528,1528000.80439692,-4464906.65838565,4276354.02919983,3.54628644,1.76419469,0.55510912,0.88326488,-0.40432431,-0.02788126,-0.23577031,0.00615041,0.35253239,9.80306041,0.00000989,0.00005312,0.08004897,nan,nan,nan
0.10648571,1528001.15902556,-4464906.48196618,4276354.08471075,3.53366588,1.78219201,0.57835934,0.88231474,-0.40443259,-0.02626374,-0.23930148,0.00640795,0.35248215,9.80306105,0.00001031,0.00005304,0.08004897,nan,nan,nan
0.10673873,1528001.51239215,-4464906.30374698,4276354.14254668,3.52081857,1.80007637,0.60157264,0.88135048,-0.40453440,-0.02464580,-0.24282881,0.00666508,0.35242986,9.80306173,0.00001074,0.00005296,0.08004897,nan,nan,nan
0.10699157,1528001.86447400,-4464906.12373935,4276354.20270394,3.50774535,1.81784663,0.62474751,0.88037212,-0.40462974,-0.02302747,-0.24635227,0.00692178,0.35237551,9.80306243,0.00001116,0.00005287,0.08004897,nan,nan,nan
0.10724409,1528002.21524854,-4464905.94195468,4276354.26517869,3.49444705,1.83550165,0.64788249,0.87937968,-0.40471860,-0.02140877,-0.24987177,0.00717804,0.35231911,9.80306315,0.00001158,0.00005278,0.08004897,nan,nan,nan
0.10749819,1528002.56469324,-4464905.75840452,4276354.32996694,3.48092451,1.85304031,0.67097608,0.87837316,-0.40480099,-0.01978973,-0.25338729,0.00743384,0.35226067,9.80306391,0.00001200,0.00005269,0.08004897,nan,nan,nan
0.10775222,1528002.91278570,-4464905.57310049,4276354.39706455,3.46717861,1.87046149,0.69402681,0.87735259,-0.40487690,-0.01817037,-0.25689874,0.00768916,0.35220018,9.80306469,0.00001242,0.00005259,0.08004897,nan,nan,nan
0.10800550,1528003.25950356,-4464905.38605434,4276354.46646723,3.45321021,1.88776407,0.71703320,0.87631798,-0.40494633,-0.01655072,-0.26040609,0.00794400,0.35213764,9.80306550,0.00001284,0.00005249,0.08004897,nan,nan,nan
0.10825798,1528003.60482458,-4464905.19727793,4276354.53817055,3.43902023,1.90494694,0.73999377,0.87526936,-0.40500929,-0.01493081,-0.26390927,0.00819832,0.35207307,9.80306633,0.00001326,0.00005238,0.08004897,nan,nan,nan
0.10851097,1528003.94872660,-4464905.00678324,4276354.61216993,3.42460955,1.92200900,0.76290706,0.87420672,-0.40506576,-0.01331066,-0.26740823,0.00845212,0.35200647,9.80306719,0.00001368,0.00005227,0.08004897,nan,nan,nan
0.10876182,1528004.29118756,-4464904.81458234,4276354.68846063,3.40997911,1.93894917,0.78577160,0.87313010,-0.40511575,-0.01169029,-0.27090291,0.00870538,0.35193784,9.80306808,0.00001410,0.00005216,0.08004897,nan,nan,nan
0.10901305,1528004.63218547,-4464904.62068742,4276354.76703779,3.39512983,1.95576637,0.80858592,0.87203951,-0.40515926,-0.01006974,-0.27439325,0.00895808,0.35186719,9.80306900,0.00001452,0.00005205,0.08004897,nan,nan,nan
0.10926234,1528004.97169845,-4464904.42511078,4276354.84789639,3.38006268,1.97245951,0.83134856,0.87093497,-0.40519629,-0.00844903,-0.27787921,0.00921021,0.35179452,9.80306994,0.00001493,0.00005193,0.08004897,nan,nan,nan
0.10951429,1528005.30970472,-4464904.22786483,4276354.93103124,3.36477860,1.98902753,0.85405807,0.86981650,-0.40522683,-0.00682818,-0.28136072,0.00946175,0.35171983,9.80307091,0.00001535,0.00005181,0.08004897,nan,nan,nan
0.10976537,1528005.64618258,-4464904.02896208,4276355.01643705,3.34927858,2.00546937,0.87671298,0.86868410,-0.40525089,-0.00520722,-0.28483772,0.00971268,0.35164313,9.80307190,0.00001576,0.00005169,0.08004897,nan,nan,nan
0.11001551,1528005.98111044,-4464903.82841514,4276355.10410835,3.33356362,2.02178398,0.89931184,0.86753781,-0.40526847,-0.00358618,-0.28831017,0.00996299,0.35156443,9.80307292,0.00001617,0.00005156,0.08004897,nan,nan,nan
0.11026555,1528006.31446680,-4464903.62623675,4276355.19403953,3.31763470,2.03797031,0.92185321,0.86637763,-0.40527956,-0.00196508,-0.29177801,0.01021267,0.35148373,9.80307397,0.00001659,0.00005143,0.08004897,nan,nan,nan
0.11051604,1528006.64623027,-4464903.42243971,4276355.28622485,3.30149287,2.05402734,0.94433565,0.86520360,-0.40528417,-0.00034395,-0.29524118,0.01046169,0.35140103,9.80307504,0.00001700,0.00005129,0.08004897,nan,nan,nan
0.11076862,1528006.97637955,-4464903.21703698,4276355.38065842,3.28513913,2.06995403,0.96675771,0.86401572,-0.40528230,0.00127718,-0.29869962,0.01071004,0.35131634,9.80307614,0.00001741,0.00005115,0.08004897,nan,nan,nan
0.11102111,1528007.30489347,-4464903.01004158,4276355.47733419,3.26857455,2.08574937,0.98911795,0.86281402,-0.40527394,0.00289830,-0.30215329,0.01095770,0.35122967,9.80307727,0.00001782,0.00005101,0.08004897,nan,nan,nan
0.11128062,1528007.63175092,-4464902.80146664,4276355.57624598,3.25180017,2.10141234,1.01141495,0.86159851,-0.40525909,0.00451937,-0.30560212,0.01120467,0.35114102,9.80307842,0.00001822,0.00005087,0.08004897,nan,nan,nan
0.11153297,1528007.95693094,-4464902.59132541,4276355.67738748,3.23481708,2.11694196,1.03364727,0.86036921,-0.40523776,0.00614036,-0.30904606,0.01145092,0.35105040,9.80307960,0.00001863,0.00005072,0.08004897,nan,nan,nan
0.11178405,1528008.28041265,-4464902.37963121,4276355.78075220,3.21762636,2.13233721,1.05581349,0.85912615,-0.40520995,0.00776126,-0.31248506,0.01169643,0.35095781,9.80308080,0.00001904,0.00005057,0.08004897,nan,nan,nan
0.11203738,1528008.60217528,-4464902.16639749,4276355.88633355,3.20022911,2.14759712,1.07791218,0.85786935,-0.40517565,0.00938203,-0.31591906,0.01194120,0.35086326,9.80308203,0.00001944,0.00005042,0.08004897,nan,nan,nan
0.11228936,1528008.92219820,-4464901.95163778,4276355.99412477,3.18262644,2.16272072,1.09994195,0.85659882,-0.40513487,0.01100266,-0.31934800,0.01218520,0.35076675,9.80308329,0.00001984,0.00005026,0.08004897,nan,nan,nan
0.11254055,1528009.24046084,-4464901.73536570,4276356.10411897,3.16481947,2.17770703,1.12190136,0.85531458,-0.40508761,0.01262310,-0.32277183,0.01242842,0.35066830,9.80308457,0.00002024,0.00005010,0.08004897,nan,nan,nan
0.11279240,1528009.55694279,-4464901.51759500,4276356.21630910,3.14680935,2.19255511,1.14378902,0.85401666,-0.40503387,0.01424335,-0.32619050,0.01267085,0.35056790,9.80308588,0.00002064,0.00004994,0.08004897,nan,nan,nan
0.11304519,1528009.87162372,-4464901.29833949,4276356.33068800,3.12859723,2.20726399,1.16560352,0.85270507,-0.40497364,0.01586336,-0.32960395,0.01291246,0.35046557,9.80308721,0.00002104,0.00004977,0.08004897,nan,nan,nan
0.11329747,1528010.18448344,-4464901.07761309,4276356.44724836,3.11018426,2.22183274,1.18734347,0.85137984,-0.40490694,0.01748313,-0.33301213,0.01315325,0.35036131,9.80308857,0.00002144,0.00004960,0.08004897,nan,nan,nan
0.11355043,1528010.49550187,-4464900.85542982,4276356.56598270,3.09157164,2.23626043,1.20900746,0.85004099,-0.40483376,0.01910261,-0.33641497,0.01339320,0.35025512,9.80308995,0.00002184,0.00004943,0.08004897,nan,nan,nan
0.11380222,1528010.80465903,-4464900.63180378,4276356.68688345,3.07276054,2.25054613,1.23059413,0.84868854,-0.40475410,0.02072179,-0.33981244,0.01363229,0.35014702,9.80309136,0.00002223,0.00004925,0.08004897,nan,nan,nan
0.11406097,1528011.11193509,-4464900.40674916,4276356.80994286,3.05375218,2.26468894,1.25210207,0.84732250,-0.40466797,0.02234063,-0.34320447,0.01387051,0.35003701,9.80309280,0.00002262,0.00004907,0.08004897,nan,nan,nan
0.11431723,1528011.41731031,-4464900.18028027,4276356.93515307,3.03454777,2.27868795,1.27352991,0.84594292,-0.40457536,0.02395912,-0.34659100,0.01410784,0.34992510,9.80309426,0.00002302,0.00004889,0.08004897,nan,nan,nan
0.11457040,1528011.72076508,-4464899.95241147,4276357.06250606,3.01514853,2.29254226,1.29487628,0.84454979,-0.40447627,0.02557723,-0.34997200,0.01434426,0.34981129,9.80309574,0.00002341,0.00004870,0.08004897,nan,nan,nan
0.11482649,1528012.02227994,-4464899.72315725,4276357.19199369,2.99555571,2.30625098,1.31613981,0.84314316,-0.40437072,0.02719492,-0.35334739,0.01457977,0.34969559,9.80309725,0.00002380,0.00004851,0.08004897,nan,nan,nan
0.11507956,1528012.32183551,-4464899.49253215,4276357.32360767,2.97577055,2.31981325,1.33731914,0.84172303,-0.40425870,0.02881218,-0.35671713,0.01481435,0.34957802,9.80309878,0.00002418,0.00004832,0.08004897,nan,nan,nan
0.11533211,1528012.61941256,-4464899.26055082,4276357.45733958,2.95579434,2.33322820,1.35841292,0.84028943,-0.40414020,0.03042898,-0.36008116,0.01504798,0.34945857,9.80310034,0.00002457,0.00004813,0.08004897,nan,nan,nan
0.11558356,1528012.91499200,-4464899.02722801,4276357.59318087,2.93562833,2.34649496,1.37941978,0.83884240,-0.40401524,0.03204529,-0.36343943,0.01528064,0.34933725,9.80310193,0.00002495,0.00004793,0.08004897,nan,nan,nan
0.11583516,1528013.20855483,-4464898.79257851,4276357.73112285,2.91527383,2.35961270,1.40033838,0.83738193,-0.40388382,0.03366109,-0.36679188,0.01551233,0.34921408,9.80310353,0.00002534,0.00004773,0.08004897,nan,nan,nan
0.11608670,1528013.50008221,-4464898.55661724,4276357.87115669,2.89473213,2.37258056,1.42116739,0.83590808,-0.40374594,0.03527635,-0.37013847,0.01574302,0.34908906,9.80310517,0.00002572,0.00004752,0.08004897,nan,nan,nan
0.11633836,1528013.78955543,-4464898.31935918,4276358.01327343,2.87400455,2.38539773,1.44190547,0.83442084,-0.40360159,0.03689105,-0.37347913,0.01597271,0.34896220,9.80310682,0.00002610,0.00004732,0.08004897,nan,nan,nan
0.11658969,1528014.07695588,-4464898.08081941,4276358.15746398,2.85309241,2.39806339,1.46255129,0.83292026,-0.40345079,0.03850516,-0.37681382,0.01620137,0.34883350,9.80310850,0.00002647,0.00004711,0.08004897,nan,nan,nan
0.11684189,1528014.36226512,-4464897.84101307,4276358.30371911,2.83199706,2.41057671,1.48310352,0.83140635,-0.40329353,0.04011865,-0.38014248,0.01642900,0.34870298,9.80311021,0.00002685,0.00004689,0.08004897,nan,nan,nan
0.11709469,1528014.64546483,-4464897.59995540,4276358.45202946,2.81071983,2.42293691,1.50356086,0.82987914,-0.40312982,0.04173149,-0.38346506,0.01665558,0.34857064,9.80311194,0.00002722,0.00004668,0.08004897,nan,nan,nan
0.11734619,1528014.92653681,-4464897.35766171,4276358.60238554,2.78926209,2.43514320,1.52392198,0.82833864,-0.40295966,0.04334367,-0.38678150,0.01688109,0.34843650,9.80311369,0.00002760,0.00004646,0.08004897,nan,nan,nan
0.11783713,1528015.20546302,-4464897.11414739,4276358.75477774,2.76762522,2.44719479,1.54418559,0.82678490,-0.40278305,0.04495516,-0.39009175,0.01710552,0.34830055,9.80311547,0.00002797,0.00004624,0.08004897,nan,nan,nan
0.11824097,1528015.48222554,-4464896.86942791,4276358.90919630,2.74581060,2.45909092,1.56435038,0.82521793,-0.40260000,0.04656593,-0.39339576,0.01732885,0.34816281,9.80311727,0.00002834,0.00004601,0.08004897,nan,nan,nan
0.11851527,1528015.75680660,-4464896.62351882,4276359.06563134,2.72381961,2.47083082,1.58441506,0.82363775,-0.40241051,0.04817595,-0.39669348,0.01755108,0.34802329,9.80311909,0.00002870,0.00004578,0.08004897,nan,nan,nan
0.11877408,1528016.02918856,-4464896.37643574,4276359.22407285,2.70165368,2.48241374,1.60437836,0.82204439,-0.40221458,0.04978520,-0.39998485,0.01777218,0.34788200,9.80312094,0.00002907,0.00004555,0.08004897,nan,nan,nan
0.11903114,1528016.29935393,-4464896.12819436,4276359.38451068,2.67931421,2.49383895,1.62423898,0.82043789,-0.40201221,0.05139366,-0.40326982,0.01799215,0.34773894,9.80312281,0.00002943,0.00004532,0.08004897,nan,nan,nan
0.11928504,1528016.56728535,-4464895.87881047,4276359.54693458,2.65680264,2.50510571,1.64399565,0.81881825,-0.40180341,0.05300129,-0.40654834,0.01821096,0.34759413,9.80312470,0.00002979,0.00004508,0.08004897,nan,nan,nan
0.11954002,1528016.83296562,-4464895.62829990,4276359.71133414,2.63412040,2.51621331,1.66364712,0.81718552,-0.40158818,0.05460807,-0.40982036,0.01842861,0.34744757,9.80312662,0.00003015,0.00004484,0.08004897,nan,nan,nan
0.11979375,1528017.09637766,-4464895.37667857,4276359.87769886,2.61126895,2.52716103,1.68319211,0.81553971,-0.40136652,0.05621398,-0.41308581,0.01864508,0.34729928,9.80312856,0.00003051,0.00004460,0.08004897,nan,nan,nan
0.12004588,1528017.35750455,-4464895.12396246,4276360.04601807,2.58824975,2.53794817,1.70262939,0.81388085,-0.40113845,0.05781899,-0.41634466,0.01886036,0.34714926,9.80313052,0.00003087,0.00004435,0.08004897,nan,nan,nan
0.12029807,1528017.61632953,-4464894.87016765,4276360.21628101,2.56506426,2.54857405,1.72195769,0.81220897,-0.40090395,0.05942308,-0.41959685,0.01907443,0.34699752,9.80313250,0.00003122,0.00004410,0.08004897,nan,nan,nan
0.12055163,1528017.87283595,-4464894.61531024,4276360.38847677,2.54171398,2.55903799,1.74117579,0.81052409,-0.40066305,0.06102621,-0.42284232,0.01928727,0.34684407,9.80313451,0.00003157,0.00004385,0.08004897,nan,nan,nan
0.12080523,1528018.12700735,-4464894.35940644,4276360.56259435,2.51820040,2.56933932,1.76028245,0.80882624,-0.40041573,0.06262837,-0.42608103,0.01949889,0.34668893,9.80313654,0.00003192,0.00004360,0.08004897,nan,nan,nan
0.12105624,1528018.37882739,-4464894.10247251,4276360.73862260,2.49452501,2.57947738,1.77927645,0.80711546,-0.40016200,0.06422953,-0.42931292,0.01970925,0.34653210,9.80313859,0.00003227,0.00004334,0.08004897,nan,nan,nan
0.12130968,1528018.62827989,-4464893.84452477,4276360.91655024,2.47068934,2.58945152,1.79815657,0.80539176,-0.39990187,0.06582966,-0.43253794,0.01991836,0.34637358,9.80314067,0.00003262,0.00004308,0.08004897,nan,nan,nan
0.12156169,1528018.87534883,-4464893.58557962,4276361.09636590,2.44669491,2.59926110,1.81692160,0.80365517,-0.39963534,0.06742873,-0.43575604,0.02012619,0.34621341,9.80314277,0.00003296,0.00004282,0.08004897,nan,nan,nan
0.12181271,1528019.12001832,-4464893.32565351,4276361.27805806,2.42254325,2.60890550,1.83557033,0.80190573,-0.39936242,0.06902673,-0.43896716,0.02033273,0.34605157,9.80314488,0.00003330,0.00004255,0.08004897,nan,nan,nan
0.12206303,1528019.36227264,-4464893.06476296,4276361.46161509,2.39823591,2.61838411,1.85410158,0.80014345,-0.39908311,0.07062362,-0.44217127,0.02053797,0.34588809,9.80314702,0.00003364,0.00004229,0.08004897,nan,nan,nan
0.12231350,1528019.60209623,-4464892.80292455,4276361.64702525,2.37377445,2.62769631,1.87251415,0.79836837,-0.39879742,0.07221938,-0.44536830,0.02074190,0.34572297,9.80314919,0.00003398,0.00004202,0.08004897,nan,nan,nan
0.12256618,1528019.83947368,-4464892.54015492,4276361.83427667,2.34916042,2.63684152,1.89080687,0.79658052,-0.39850534,0.07381399,-0.44855820,0.02094450,0.34555622,9.80315137,0.00003431,0.00004174,0.08004897,nan,nan,nan
0.12281669,1528020.07438972,-4464892.27647077,4276362.02335735,2.32439540,2.64581914,1.90897856,0.79477992,-0.39820689,0.07540741,-0.45174093,0.02114575,0.34538786,9.80315357,0.00003465,0.00004147,0.08004897,nan,nan,nan
0.12306522,1528020.30682926,-4464892.01188885,4276362.21425521,2.29948098,2.65462861,1.92702805,0.79296661,-0.39790206,0.07699963,-0.45491643,0.02134566,0.34521790,9.80315580,0.00003498,0.00004119,0.08004897,nan,nan,nan
0.12331655,1528020.53677736,-4464891.74642599,4276362.40695801,2.27441875,2.66326937,1.94495420,0.79114061,-0.39759087,0.07859062,-0.45808465,0.02154420,0.34504634,9.80315805,0.00003530,0.00004091,0.08004897,nan,nan,nan
0.12356784,1528020.76421923,-4464891.48009905,4276362.60145343,2.24921031,2.67174085,1.96275585,0.78930195,-0.39727332,0.08018034,-0.46124554,0.02174136,0.34487320,9.80316032,0.00003563,0.00004062,0.08004897,nan,nan,nan
0.12381852,1528020.98914026,-4464891.21292497,4276362.79772902,2.22385728,2.68004252,1.98043186,0.78745066,-0.39694941,0.08176879,-0.46439905,0.02193713,0.34469848,9.80316260,0.00003595,0.00004034,0.08004897,nan,nan,nan
0.12406929,1528021.21152599,-4464890.94492072,4276362.99577221,2.19836128,2.68817385,1.99798110,0.78558678,-0.39661915,0.08335593,-0.46754514,0.02213149,0.34452221,9.80316491,0.00003628,0.00004005,0.08004897,nan,nan,nan
0.12431897,1528021.43136212,-4464890.67610333,4276363.19557032,2.17272393,2.69613432,2.01540244,0.78371032,-0.39628255,0.08494173,-0.47068374,0.02232444,0.34434439,9.80316724,0.00003659,0.00003976,0.08004897,nan,nan,nan
0.12456944,1528021.64863451,-4464890.40648990,4276363.39711056,2.14694688,2.70392342,2.03269477,0.78182132,-0.39593960,0.08652617,-0.47381481,0.02251596,0.34416502,9.80316959,0.00003691,0.00003946,0.08004897,nan,nan,nan
0.12482026,1528021.86332920,-4464890.13609756,4276363.60038004,2.12103178,2.71154066,2.04985698,0.77991982,-0.39559032,0.08810923,-0.47693829,0.02270604,0.34398414,9.80317196,0.00003723,0.00003917,0.08004897,nan,nan,nan
0.12507096,1528022.07543238,-4464889.86494349,4276363.80536573,2.09498028,2.71898555,2.06688796,0.77800584,-0.39523471,0.08969088,-0.48005415,0.02289466,0.34380173,9.80317435,0.00003754,0.00003887,0.08004897,nan,nan,nan
0.12532288,1528022.28493041,-4464889.59304494,4276364.01205453,2.06879405,2.72625760,2.08378664,0.77607940,-0.39487278,0.09127110,-0.48316233,0.02308183,0.34361783,9.80317676,0.00003785,0.00003857,0.08004897,nan,nan,nan
0.12557331,1528022.49180981,-4464889.32041918,4276364.22043319,2.04247477,2.73335637,2.10055191,0.77414055,-0.39450452,0.09284985,-0.48626278,0.02326751,0.34343243,9.80317919,0.00003816,0.00003826,0.08004897,nan,nan,nan
0.12583950,1528022.69605729,-4464889.04708354,4276364.43048838,2.01602411,2.74028139,2.11718272,0.77218932,-0.39412996,0.09442712,-0.48935544,0.02345170,0.34324555,9.80318164,0.00003846,0.00003796,0.08004897,nan,nan,nan
0.12609352,1528022.89765970,-4464888.77305540,4276364.64220666,1.98944378,2.74703223,2.13367799,0.77022573,-0.39374909,0.09600288,-0.49244028,0.02363440,0.34305721,9.80318411,0.00003876,0.00003765,0.08004897,nan,nan,nan
0.12634506,1528023.09660408,-4464888.49835218,4276364.85557445,1.96273546,2.75360845,2.15003666,0.76824982,-0.39336192,0.09757710,-0.49551724,0.02381558,0.34286741,9.80318660,0.00003906,0.00003734,0.08004897,nan,nan,nan
0.12659674,1528023.29287762,-4464888.22299133,4276365.07057812,1.93590088,2.76000963,2.16625769,0.76626161,-0.39296846,0.09914976,-0.49858627,0.02399523,0.34267617,9.80318911,0.00003936,0.00003702,0.08004897,nan,nan,nan
0.12684613,1528023.48646771,-4464887.94699037,4276365.28720389,1.90894174,2.76623537,2.18234004,0.76426114,-0.39256870,0.10072084,-0.50164732,0.02417335,0.34248349,9.80319163,0.00003966,0.00003671,0.08004897,nan,nan,nan
0.12709723,1528023.67736188,-4464887.67036683,4276365.50543789,1.88185978,2.77228526,2.19828268,0.76224845,-0.39216267,0.10229030,-0.50470034,0.02434993,0.34228940,9.80319418,0.00003995,0.00003639,0.08004897,nan,nan,nan
0.12734933,1528023.86554786,-4464887.39313831,4276365.72526616,1.85465671,2.77815893,2.21408458,0.76022356,-0.39175036,0.10385812,-0.50774529,0.02452494,0.34209390,9.80319674,0.00004024,0.00003607,0.08004897,nan,nan,nan
0.12759992,1528024.05101353,-4464887.11532241,4276365.94667462,1.82733429,2.78385599,2.22974473,0.75818650,-0.39133179,0.10542429,-0.51078212,0.02469839,0.34189701,9.80319933,0.00004052,0.00003574,0.08004897,nan,nan,nan
0.12786186,1528024.23374696,-4464886.83693681,4276366.16964909,1.79989426,2.78937609,2.24526213,0.75613732,-0.39090695,0.10698877,-0.51381077,0.02487025,0.34169873,9.80320193,0.00004081,0.00003542,0.08004897,nan,nan,nan
0.12823738,1528024.41373639,-4464886.55799920,4276366.39417531,1.77233838,2.79471886,2.26063579,0.75407604,-0.39047586,0.10855153,-0.51683121,0.02504053,0.34149909,9.80320454,0.00004109,0.00003509,0.08004897,nan,nan,nan
0.12853996,1528024.59097023,-4464886.27852732,4276366.62023889,1.74466840,2.79988398,2.27586471,0.75200269,-0.39003852,0.11011256,-0.51984337,0.02520920,0.34129809,9.80320718,0.00004137,0.00003476,0.08004897,nan,nan,nan
0.12880820,1528024.76543707,-4464885.99853892,4276366.84782536,1.71688610,2.80487111,2.29094792,0.74991731,-0.38959495,0.11167183,-0.52284722,0.02537626,0.34109575,9.80320984,0.00004165,0.00003443,0.08004897,nan,nan,nan
0.12907071,1528024.93712568,-4464885.71805181,4276367.07692015,1.68899326,2.80967993,2.30588446,0.74781993,-0.38914513,0.11322930,-0.52584270,0.02554169,0.34089208,9.80321251,0.00004192,0.00003409,0.08004897,nan,nan,nan
0.12933019,1528025.10602500,-4464885.43708382,4276367.30750859,1.66099165,2.81431013,2.32067336,0.74571058,-0.38868909,0.11478497,-0.52882977,0.02570549,0.34068709,9.80321520,0.00004219,0.00003376,0.08004897,nan,nan,nan
0.12958622,1528025.27212417,-4464885.15565280,4276367.53957593,1.63288308,2.81876143,2.33531368,0.74358931,-0.38822684,0.11633880,-0.53180837,0.02586764,0.34048080,9.80321790,0.00004246,0.00003342,0.08004897,nan,nan,nan
0.12984088,1528025.43541248,-4464884.87377666,4276367.77310730,1.60466934,2.82303354,2.34980449,0.74145614,-0.38775837,0.11789077,-0.53477847,0.02602814,0.34027321,9.80322063,0.00004273,0.00003308,0.08004897,nan,nan,nan
0.13009448,1528025.59587941,-4464884.59147331,4276368.00808775,1.57635223,2.82712618,2.36414484,0.73931110,-0.38728369,0.11944086,-0.53774001,0.02618697,0.34006435,9.80322337,0.00004299,0.00003274,0.08004897,nan,nan,nan
0.13034890,1528025.75351463,-4464884.30876069,4276368.24450223,1.54793356,2.83103909,2.37833383,0.73715423,-0.38680282,0.12098903,-0.54069295,0.02634413,0.33985423,9.80322613,0.00004325,0.00003239,0.08004897,nan,nan,nan
0.13061850,1528025.90830799,-4464884.02565678,4276368.48233561,1.51941516,2.83477203,2.39237054,0.73498557,-0.38631577,0.12253526,-0.54363723,0.02649960,0.33964285,9.80322890,0.00004351,0.00003204,0.08004897,nan,nan,nan
0.13087748,1528026.06024950,-4464883.74217958,4276368.72157267,1.49079884,2.83832476,2.40625407,0.73280516,-0.38582253,0.12407954,-0.54657282,0.02665337,0.33943024,9.80323169,0.00004376,0.00003169,0.08004897,nan,nan,nan
0.13114794,1528026.20932939,-4464883.45834710,4276368.96219807,1.46208644,2.84169705,2.41998353,0.73061301,-0.38532311,0.12562183,-0.54949967,0.02680544,0.33921641,9.80323450,0.00004402,0.00003134,0.08004897,nan,nan,nan
0.13140302,1528026.35553803,-4464883.17417739,4276369.20419643,1.43327980,2.84488869,2.43355805,0.72840918,-0.38481754,0.12716211,-0.55241772,0.02695580,0.33900136,9.80323732,0.00004427,0.00003099,0.08004897,nan,nan,nan
0.13166598,1528026.49886601,-4464882.88968852,4276369.44755223,1.40438075,2.84789947,2.44697674,0.72619369,-0.38430580,0.12870036,-0.55532693,0.02710442,0.33878512,9.80324016,0.00004451,0.00003064,0.08004897,nan,nan,nan
0.13192212,1528026.63930409,-4464882.60489858,4276369.69224990,1.37539115,2.85072921,2.46023876,0.72396658,-0.38378792,0.13023654,-0.55822726,0.02725132,0.33856770,9.80324301,0.00004476,0.00003028,0.08004897,nan,nan,nan
0.13218520,1528026.77684320,-4464882.31982566,4276369.93827378,1.34631285,2.85337771,2.47334325,0.72172789,-0.38326389,0.13177065,-0.56111865,0.02739647,0.33834911,9.80324588,0.00004500,0.00002992,0.08004897,nan,nan,nan
0.13243900,1528026.91147449,-4464882.03448789,4276370.18560810,1.31714770,2.85584482,2.48628936,0.71947765,-0.38273374,0.13330264,-0.56400107,0.02753986,0.33812936,9.80324877,0.00004523,0.00002956,0.08004897,nan,nan,nan
0.13269351,1528027.04318926,-4464881.74890340,4276370.43423704,1.28789759,2.85813038,2.49907628,0.71721590,-0.38219746,0.13483250,-0.56687446,0.02768150,0.33790847,9.80325167,0.00004547,0.00002920,0.08004897,nan,nan,nan
0.13294851,1528027.17197902,-4464881.46309036,4276370.68414467,1.25856437,2.86023424,2.51170318,0.71494267,-0.38165506,0.13636020,-0.56973879,0.02782136,0.33768646,9.80325458,0.00004570,0.00002883,0.08004897,nan,nan,nan
0.13320084,1528027.29783545,-4464881.17706694,4276370.93531499,1.22914992,2.86215627,2.52416925,0.71265801,-0.38110656,0.13788573,-0.57259399,0.02795944,0.33746334,9.80325751,0.00004593,0.00002846,0.08004897,nan,nan,nan
0.13345284,1528027.42075044,-4464880.89085131,4276371.18773191,1.19965613,2.86389635,2.53647369,0.71036194,-0.38055196,0.13940904,-0.57544004,0.02809573,0.33723912,9.80326046,0.00004616,0.00002810,0.08004897,nan,nan,nan
0.13370467,1528027.54071606,-4464880.60446168,4276371.44137928,1.17008488,2.86545436,2.54861572,0.70805451,-0.37999127,0.14093013,-0.57827688,0.02823023,0.33701381,9.80326341,0.00004638,0.00002773,0.08004897,nan,nan,nan
0.13395748,1528027.65772455,-4464880.31791624,4276371.69624086,1.14043806,2.86683021,2.56059454,0.70573574,-0.37942450,0.14244896,-0.58110447,0.02836292,0.33678744,9.80326639,0.00004660,0.00002735,0.08004897,nan,nan,nan
0.13421110,1528027.77176835,-4464880.03123322,4276371.95230031,1.11071757,2.86802382,2.57240940,0.70340569,-0.37885166,0.14396551,-0.58392276,0.02849379,0.33656002,9.80326937,0.00004682,0.00002698,0.08004897,nan,nan,nan
0.13446417,1528027.88284011,-4464879.74443084,4276372.20954125,1.08092531,2.86903510,2.58405954,0.70106438,-0.37827276,0.14547976,-0.58673170,0.02862284,0.33633155,9.80327237,0.00004703,0.00002660,0.08004897,nan,nan,nan
0.13472902,1528027.99093264,-4464879.45752733,4276372.46794720,1.05106319,2.86986399,2.59554421,0.69871186,-0.37768781,0.14699168,-0.58953126,0.02875005,0.33610206,9.80327539,0.00004724,0.00002623,0.08004897,nan,nan,nan
0.13498546,1528028.09603896,-4464879.17054093,4276372.72750163,1.02113311,2.87051045,2.60686267,0.69634815,-0.37709681,0.14850124,-0.59232139,0.02887543,0.33587155,9.80327842,0.00004745,0.00002585,0.08004897,nan,nan,nan
0.13523962,1528028.19815227,-4464878.88348989,4276372.98818789,0.99113700,2.87097442,2.61801421,0.69397330,-0.37649978,0.15000843,-0.59510204,0.02899896,0.33564006,9.80328146,0.00004766,0.00002547,0.08004897,nan,nan,nan
0.13549339,1528028.29726597,-4464878.59639244,4276373.24998931,0.96107676,2.87125589,2.62899809,0.69158735,-0.37589673,0.15151323,-0.59787317,0.02912063,0.33540758,9.80328451,0.00004786,0.00002509,0.08004897,nan,nan,nan
0.13574530,1528028.39337364,-4464878.30926685,4276373.51288912,0.93095433,2.87135484,2.63981362,0.68919034,-0.37528766,0.15301559,-0.60063473,0.02924044,0.33517413,9.80328758,0.00004806,0.00002470,0.08004897,nan,nan,nan
0.13599599,1528028.48646908,-4464878.02213137,4276373.77687048,0.90077163,2.87127125,2.65046011,0.68678230,-0.37467259,0.15451551,-0.60338668,0.02935838,0.33493974,9.80329066,0.00004825,0.00002432,0.08004897,nan,nan,nan
0.13624716,1528028.57654624,-4464877.73500424,4276374.04191649,0.87053058,2.87100515,2.66093686,0.68436326,-0.37405152,0.15601296,-0.60612898,0.02947444,0.33470441,9.80329375,0.00004845,0.00002393,0.08004897,nan,nan,nan
0.13649885,1528028.66359930,-4464877.44790373,4276374.30801018,0.84023314,2.87055653,2.67124322,0.68193328,-0.37342447,0.15750791,-0.60886158,0.02958861,0.33446815,9.80329685,0.00004864,0.00002354,0.08004897,nan,nan,nan
0.13675330,1528028.74762261,-4464877.16084808,4276374.57513450,0.80988122,2.86992545,2.68137851,0.67949239,-0.37279145,0.15900034,-0.61158443,0.02970089,0.33423100,9.80329997,0.00004882,0.00002315,0.08004897,nan,nan,nan
0.13700710,1528028.82861073,-4464876.87385553,4276374.84327235,0.77947678,2.86911193,2.69134209,0.67704063,-0.37215246,0.16049022,-0.61429751,0.02981127,0.33399295,9.80330310,0.00004901,0.00002276,0.08004897,nan,nan,nan
0.13726120,1528028.90655841,-4464876.58694434,4276375.11240656,0.74902176,2.86811603,2.70113332,0.67457803,-0.37150751,0.16197754,-0.61700075,0.02991974,0.33375402,9.80330624,0.00004919,0.00002237,0.08004897,nan,nan,nan
0.13752871,1528028.98146059,-4464876.30013274,4276375.38251989,0.71851811,2.86693781,2.71075157,0.67210464,-0.37085662,0.16346227,-0.61969412,0.03002629,0.33351424,9.80330939,0.00004937,0.00002197,0.08004897,nan,nan,nan
0.13778562,1528029.05331240,-4464876.01343895,4276375.65359505,0.68796777,2.86557736,2.72019622,0.66962050,-0.37019980,0.16494438,-0.62237758,0.03013093,0.33327361,9.80331255,0.00004954,0.00002158,0.08004897,nan,nan,nan
0.13804076,1528029.12210918,-4464875.72688122,4276375.92561467,0.65737271,2.86403476,2.72946667,0.66712564,-0.36953705,0.16642385,-0.62505108,0.03023363,0.33303215,9.80331572,0.00004971,0.00002118,0.08004897,nan,nan,nan
0.13830319,1528029.18784645,-4464875.44047774,4276376.19856134,0.62673488,2.86231011,2.73856233,0.66462011,-0.36886839,0.16790066,-0.62771458,0.03033440,0.33278988,9.80331891,0.00004988,0.00002078,0.08004897,nan,nan,nan
0.13855718,1528029.25051994,-4464875.15424673,4276376.47241758,0.59605624,2.86040352,2.74748260,0.66210394,-0.36819383,0.16937478,-0.63036803,0.03043323,0.33254681,9.80332210,0.00005004,0.00002038,0.08004897,nan,nan,nan
0.13881898,1528029.31012556,-4464874.86820638,4276376.74716583,0.56533876,2.85831512,2.75622691,0.65957718,-0.36751338,0.17084619,-0.63301140,0.03053011,0.33230295,9.80332531,0.00005021,0.00001998,0.08004897,nan,nan,nan
0.13908123,1528029.36665944,-4464874.58237487,4276377.02278853,0.53458439,2.85604503,2.76479471,0.65703987,-0.36682705,0.17231487,-0.63564464,0.03062504,0.33205833,9.80332852,0.00005036,0.00001958,0.08004897,nan,nan,nan
0.13933651,1528029.42011787,-4464874.29677036,4276377.29926800,0.50379510,2.85359341,2.77318545,0.65449205,-0.36613485,0.17378079,-0.63826771,0.03071801,0.33181296,9.80333175,0.00005052,0.00001918,0.08004897,nan,nan,nan
0.13959124,1528029.47049738,-4464874.01141102,4276377.57658654,0.47297287,2.85096042,2.78139858,0.65193375,-0.36543679,0.17524394,-0.64088057,0.03080901,0.33156685,9.80333498,0.00005067,0.00001877,0.08004897,nan,nan,nan
0.13984415,1528029.51779467,-4464873.72631498,4276377.85472640,0.44211967,2.84814622,2.78943359,0.64936502,-0.36473288,0.17670427,-0.64348317,0.03089804,0.33132002,9.80333823,0.00005082,0.00001837,0.08004897,nan,nan,nan
0.14009673,1528029.56200664,-4464873.44150036,4276378.13366976,0.41123747,2.84515100,2.79728994,0.64678590,-0.36402314,0.17816178,-0.64607548,0.03098509,0.33107249,9.80334148,0.00005096,0.00001796,0.08004897,nan,nan,nan
0.14034991,1528029.60313039,-4464873.15698526,4276378.41339875,0.38032824,2.84197494,2.80496714,0.64419644,-0.36330757,0.17961644,-0.64865745,0.03107016,0.33082427,9.80334475,0.00005111,0.00001755,0.08004897,nan,nan,nan
0.14060326,1528029.64116321,-4464872.87278777,4276378.69389547,0.34939396,2.83861826,2.81246471,0.64159666,-0.36258619,0.18106823,-0.65122905,0.03115324,0.33057537,9.80334802,0.00005124,0.00001714,0.08004897,nan,nan,nan
0.14086162,1528029.67610261,-4464872.58892594,4276378.97514194,0.31843662,2.83508117,2.81978214,0.63898663,-0.36185901,0.18251711,-0.65379022,0.03123433,0.33032582,9.80335130,0.00005138,0.00001673,0.08004897,nan,nan,nan
0.14117394,1528029.70794627,-4464872.30541782,4276379.25712015,0.28745819,2.83136389,2.82691898,0.63636636,-0.36112604,0.18396308,-0.65634093,0.03131342,0.33007563,9.80335459,0.00005151,0.00001632,0.08004897,nan,nan,nan
0.14212256,1528029.73669209,-4464872.02228143,4276379.53981205,0.25646065,2.82746667,2.83387477,0.63373592,-0.36038729,0.18540611,-0.65888114,0.03139050,0.32982481,9.80335789,0.00005164,0.00001591,0.08004897,nan,nan,nan
0.14465914,1528029.76233815,-4464871.73953477,4276379.82319953,0.22544599,2.82338976,2.84064905,0.63109533,-0.35964278,0.18684616,-0.66141081,0.03146558,0.32957339,9.80336119,0.00005177,0.00001549,0.08004897,nan,nan,nan
0.14518819,1528029.78488275,-4464871.45719579,4276380.10726443,0.19441619,2.81913341,2.84724140,0.62844465,-0.35889251,0.18828323,-0.66392990,0.03153864,0.32932137,9.80336451,0.00005189,0.00001508,0.08004897,nan,nan,nan
