# t [sec],r_ecef_X,r_ecef_Y,r_ecef_Z,v_ecef_X,v_ecef_Y,v_ecef_Z,q_e2b_scalar,q_e2b_i,q_e2b_j,q_e2b_k,accel_X [m/s^2],accel_Y [m/s^2],accel_Z [m/s^2],gyro_X [rad/s],gyro_Y [rad/s],gyro_Z [rad/s],gps_lat [deg],gps_long [deg],gps_alt [m]
0.0,1525979.269744425,-4462983.919844554,4279165.938114328,0.0,0.0,0.0,0.901797015,-0.39979036,-0.066508461,-0.150021455,0.0,0.0,0.0,0.0,0.0,0.0,0.0,0.0,0.0
0.09473656200043479,1525979.1279337618,-4462983.96833232,4279165.938114328,0.005785737076067622,-0.022104461801346963,-0.005017909594353656,0.9016770165441799,-0.3999891744361998,-0.06681503185479447,-0.1500765479507787,0.12120000000000003,-0.24159999999999998,10.002713299999996,0.0079412480965742,0.008203047484373348,-0.0011780972450961724,42.407331,-71.123466,68.6
0.17664266100018722,1525979.1284510028,-4462983.970308444,4279165.937665731,0.014242219309192962,-0.03620851333432197,-0.005586552701845595,0.9015813064293413,-0.40001152321677813,-0.067299437778628,-0.15037524870264085,0.03120000000000006,-0.08159999999999998,9.932713299999998,0.0024870941840919197,0.012566370614359171,0.0020943951023931952,nan,nan,nan
0.5607815450002818,1525979.1339174071,-4462983.984205884,4279165.935521517,0.06302972955314863,-0.08454586670453691,-0.017520367631717597,0.9021642408649928,-0.3980327796510808,-0.06901129795309406,-0.15135068595582946,0.06120000000000005,-0.08459999999999998,9.901713299999997,-0.009512044423369096,0.011475539831862717,-8.726646259971647e-05,nan,nan,nan
0.6481472660007057,1525979.139422929,-4462983.991590798,4279165.933991147,0.08284400970904464,-0.098583036088584,-0.03287539280504225,0.9022050256151709,-0.3977864331827817,-0.0694988053207954,-0.1515320492376998,0.10120000000000007,-0.27159999999999995,9.852713299999998,-0.004057890510886816,0.012566370614359171,-0.0011780972450961724,nan,nan,nan
0.9315250280005785,1525979.1629002662,-4462984.019528451,4279165.924674521,0.0851968668311736,-0.07619935047595462,0.01434225298642678,0.9018797968045418,-0.3984526633023186,-0.0700361443799531,-0.15147028177244365,-0.038799999999999946,0.17840000000000003,9.862713299999998,0.005759586531581288,0.002748893571891069,-0.0011780972450961724,nan,nan,nan
1.003881702000399,1525979.169896037,-4462984.025785409,4279165.925852207,0.09395052943096259,-0.07365442381577549,0.019793447352816747,0.901834822688635,-0.3985511044781178,-0.07001461234970982,-0.1514890237597967,0.03120000000000006,0.06840000000000002,9.852713299999998,0.0024870941840919197,-0.0005235987755982992,0.0010035643198967395,nan,nan,nan
1.073888841000553,1525979.176510166,-4462984.03097069,4279165.927245668,0.10751271476561224,-0.08270083020935749,0.014783193879387153,0.9018948351272287,-0.3982917630768491,-0.07034582182233347,-0.1516602905999143,0.06120000000000003,-0.15159999999999998,9.892713299999997,-0.006239552075879728,0.011475539831862717,-8.726646259971647e-05,nan,nan,nan
1.1497689210000317,1525977.6949246214,-4462983.371208214,4279166.796720162,-3.005608322694079,1.119190891694022,2.096396823614099,0.9485438402232671,-0.29142574304797847,0.0507580669015443,-0.11295679999271875,0.03120000000000006,-0.05159999999999998,9.762713299999996,-0.004057890510886816,0.009293878266869804,0.0010035643198967395,42.407343,-71.12348,68.4
1.2201987110001937,1525977.4664115028,-4462983.286117353,4279166.9561069235,-3.2090359908189323,1.2280575416653545,2.2153315255018433,0.948569505374397,-0.29137369214112796,0.05053207287803178,-0.11297687891429159,0.0012000000000000344,0.14840000000000003,9.812713299999997,-0.0007853981633974483,0.006021385919380437,-0.0011780972450961724,nan,nan,nan
1.4935021110004527,1525976.5894725383,-4462982.950523887,4279167.561494504,-3.943848377923917,1.6041308162411625,2.6388909741611384,0.9485861995256711,-0.2913540698870034,0.05002911827984803,-0.11311107775372915,-0.028799999999999937,0.09840000000000002,9.832713299999996,0.00030543261909900764,0.0038397243543875246,-8.726646259971647e-05,nan,nan,nan
1.5658264940002482,1525976.3052210745,-4462982.834906731,4279167.751691629,-4.122404911164395,1.6829363482669177,2.7450660558018365,0.9487086784433068,-0.29096679107134754,0.0495750289396295,-0.11328056762913193,0.10120000000000007,-0.2216,9.922713299999996,-0.009512044423369096,0.014748032179352085,0.0010035643198967395,nan,nan,nan
1.6519938030005505,1525975.9919100895,-4462982.707000216,4279167.960322117,-4.319685666345335,1.782763757791364,2.854329053415401,0.9488400823609903,-0.2905650429753402,0.04912343881662649,-0.11340785784725552,0.011200000000000043,-0.04159999999999998,9.772713299999998,-0.009512044423369096,0.013657201396855629,-8.726646259971647e-05,nan,nan,nan
1.8250515610006914,1525975.2004173636,-4462982.3803457655,4279168.483318663,-4.798432825270743,2.036490266676997,3.133185806323927,0.9488073234071701,-0.2907073451549728,0.04847895768749229,-0.11359442653647148,0.011200000000000043,0.058400000000000035,9.802713299999997,0.0024870941840919197,0.007112216701876893,-8.726646259971647e-05,nan,nan,nan
1.9009051000002728,1525974.834938998,-4462982.225234053,4279168.721961501,-4.98521841696215,2.1186181742029233,3.2464946412400426,0.9487747687930987,-0.29080858212273414,0.04825782194227918,-0.11370131856535673,0.09120000000000006,-0.24159999999999998,9.942713299999998,0.0035779249665883754,0.006021385919380437,0.0010035643198967395,nan,nan,nan
1.9729630770007134,1525974.4758615124,-4462982.0726333,4279168.955801433,-5.170088420034831,2.2158825033700484,3.3510413422058964,0.948840964449006,-0.2905927047121458,0.04797260935591456,-0.1138214982324995,0.021200000000000052,-0.011599999999999971,9.762713299999996,-0.005148721293383272,0.009293878266869804,0.0010035643198967395,nan,nan,nan
2.352091988000211,1525976.9083638012,-4462982.701686426,4279167.541104361,-0.17250658249603834,0.14972106686811992,1.0659652688130734,0.8953588507181324,-0.4070894091108463,-0.11006984921205387,-0.1431620420421189,0.03320000000000005,-0.03459999999999998,9.835713299999997,-0.006239552075879728,0.011475539831862717,-8.726646259971647e-05,42.407353,-71.123486,68.2
2.7306030050003756,1525976.8438466727,-4462982.645691036,4279167.939773312,0.09585328153531503,0.17760372187145457,0.9834197889133036,0.8954289359327464,-0.406258260704204,-0.11150790224126977,-0.14396956136087347,0.0012000000000000344,0.09840000000000002,9.802713299999997,-0.0035124751196385874,0.009293878266869806,0.0002399827721492203,nan,nan,nan
2.8003102390002823,1525976.8514613358,-4462982.6315820515,4279168.017896985,0.16253985947709237,0.1766752134455788,0.9562041248404144,0.895420566664332,-0.4060918323040464,-0.11188170034369885,-0.14420096468268798,0.06120000000000003,-0.08159999999999998,9.822713299999997,-0.0029670597283903604,0.011475539831862717,0.0010035643198967395,nan,nan,nan
2.870157260000269,1525976.8628585918,-4462982.6191936275,4279168.084945789,0.21349620167737127,0.18458887638876592,0.9400428838921754,0.8953626881088939,-0.40620550667811794,-0.11190226869508033,-0.14422422093542123,-0.018799999999999928,0.09840000000000002,9.772713299999998,0.0035779249665883754,0.0005672320068981565,0.0010035643198967395,nan,nan,nan
2.9461232120002023,1525976.879084079,-4462982.605165067,4279168.156388061,0.2715485858628689,0.18861740538779398,0.9256644698205829,0.8952492525622506,-0.40633456915766364,-0.11213637633935968,-0.1443829191850991,-0.008799999999999975,0.08840000000000003,9.852713299999998,0.004668755749084832,0.007112216701876893,0.0020943951023931952,nan,nan,nan
3.019169151000824,1525976.8988727378,-4462982.591419882,4279168.223844344,0.3339889935227251,0.1861016236839519,0.9039211560963161,0.895189917272449,-0.4063737511509281,-0.11239781864216615,-0.14443724350214543,0.05120000000000002,-0.061599999999999974,9.872713299999997,0.0024870941840919197,0.007112216701876893,-0.0011780972450961724,nan,nan,nan
3.097065945000395,1525976.9249131912,-4462982.576909911,4279168.294321268,0.3980650149893922,0.1816001271885631,0.8752123553010577,0.8951453982817619,-0.4062973312922213,-0.11272145849525,-0.1446757335258905,0.011200000000000043,-0.12159999999999999,9.832713299999996,-0.0007853981633974483,0.01038470904936626,0.0020943951023931952,nan,nan,nan
3.47630830900016,1525976.1055029635,-4462982.56068711,4279167.92008347,-0.4889157607220458,-0.32654189084184837,0.15690158104939744,0.8907058930156031,-0.4288633499210884,-0.09111094758535451,-0.12007512243834778,0.023200000000000044,-0.02159999999999998,9.823713299999998,-0.0007853981633974483,0.00493055513688398,0.0010035643198967395,42.407358,-71.123495,68.1
3.5486895240001104,1525976.0674197245,-4462982.58612252,4279167.9323050445,-0.4687637861587737,-0.3595953600796612,0.11072100637235027,0.8907297116970996,-0.42866370841594753,-0.09152812614826748,-0.12029384218497044,0.0012000000000000344,-0.011599999999999971,9.792713299999997,-0.004057890510886816,0.012566370614359171,-8.726646259971647e-05,nan,nan,nan
3.9324722549999933,1525975.8921709626,-4462982.720558335,4279167.973698428,-0.3576655467423838,-0.5249290626260187,-0.10515906771033179,0.8909415808670724,-0.4275903550838948,-0.09305495558739564,-0.12136870897675611,0.022200000000000043,-0.018599999999999974,9.825713299999999,-0.005148721293383272,0.01038470904936626,0.0010035643198967395,nan,nan,nan
4.004372280000098,1525975.862865765,-4462982.763568209,4279167.965082258,-0.3308881933219159,-0.5565270457294679,-0.15500867830959453,0.891071641923127,-0.4271298545478815,-0.09354075898114517,-0.12166159328360528,0.03120000000000006,-0.031599999999999975,9.772713299999998,-0.010602875205865551,0.014748032179352085,-8.726646259971647e-05,nan,nan,nan
4.074592411000594,1525975.8396698926,-4462982.802581781,4279167.954215864,-0.3132104094015773,-0.5743904569949083,-0.17986049502281964,0.8909954056296424,-0.42721121141074647,-0.0937783624530786,-0.12175133380869575,-0.028799999999999937,0.24840000000000004,9.812713299999997,0.0035779249665883754,0.007112216701876893,-8.726646259971647e-05,nan,nan,nan
4.150715024000419,1525975.8158390995,-4462982.846284607,4279167.940531075,-0.2792387934655943,-0.6155445320089824,-0.22456220184481612,0.8909330638788521,-0.4272765078452472,-0.0939395102248493,-0.121854136189434,0.08120000000000005,-0.1316,9.932713299999998,0.0024870941840919197,0.00493055513688398,0.0010035643198967395,nan,nan,nan
4.529455699000209,1525975.4182080962,-4462982.558699352,4279167.970471996,-0.45660072873314395,-0.2762490201759585,-0.03441560859187204,0.8989236382075712,-0.41177334829407536,-0.08800202223939498,-0.12097374485760584,0.018200000000000043,0.00940000000000002,9.826713299999998,0.006850417314077744,0.002748893571891069,-0.0011780972450961724,42.40736,-71.123503,68.0
4.601944826000363,1525975.382703676,-4462982.58017996,4279167.967795903,-0.4287439481137295,-0.3069960695239529,-0.06089823671083966,0.8989074657541504,-0.411716115477455,-0.08822965815986832,-0.12112281471855234,0.11120000000000002,-0.1916,9.952713299999997,-0.0007853981633974483,0.007112216701876893,0.0010035643198967395,nan,nan,nan
4.684244951000437,1525975.3516337436,-4462982.602427147,4279167.963382769,-0.4060085379887142,-0.3315751065924349,-0.08761293654072955,0.898972437884176,-0.41142559422902886,-0.08859071225099986,-0.12136400865774957,0.08120000000000005,-0.17159999999999997,9.882713299999997,-0.007330382858376184,0.012566370614359171,0.0010035643198967395,nan,nan,nan
4.857092508000278,1525975.2775238988,-4462982.662950455,4279167.947390541,-0.36883727865433213,-0.3651952095655691,-0.12102023193135147,0.8987379167168784,-0.41175055702168684,-0.08909601050402656,-0.1216286862411505,0.0012000000000000344,0.07840000000000003,9.862713299999998,0.004668755749084832,0.006021385919380437,0.0010035643198967395,nan,nan,nan
4.927407386000596,1525975.2515951747,-4462982.688623147,4279167.938882995,-0.3474038726700964,-0.3861291622354193,-0.14237526733852762,0.8987566470681163,-0.4115766426567993,-0.08942558703256945,-0.12183686433449055,0.06120000000000003,-0.09159999999999997,9.892713299999997,-0.004057890510886816,0.011475539831862717,0.0010035643198967395,nan,nan,nan
5.003614620000008,1525975.2251311685,-4462982.71803711,4279167.928037348,-0.3312890606060679,-0.3990097901370792,-0.1647182468549095,0.8988122734909417,-0.4113046285283335,-0.08982701768683146,-0.12204960886233734,0.0012000000000000344,0.008400000000000019,9.782713299999998,-0.006239552075879728,0.012566370614359171,-8.726646259971647e-05,nan,nan,nan
5.276682153000365,1525975.1346131878,-4462982.827058399,4279167.883031446,-0.28966760099564504,-0.4306478292708839,-0.20094548478324076,0.8985670544684901,-0.4113607279120119,-0.09080834421234925,-0.12293675338839195,-0.05879999999999996,0.16840000000000002,9.832713299999996,0.0013962634015954635,0.009293878266869804,0.0031852258848896514,nan,nan,nan
5.355065220000142,1525975.1120351308,-4462982.860625119,4279167.867368808,-0.26093581655683595,-0.45173092154124445,-0.2291427773059047,0.8985227435529519,-0.4113898027305741,-0.09097043850697428,-0.1230434451808374,0.09120000000000006,-0.1316,9.852713299999998,0.0013962634015954635,0.00493055513688398,0.0010035643198967395,nan,nan,nan
5.744055418000244,1525974.4964597402,-4462981.910014969,4279168.782117977,-0.8079249788653836,0.8318239148123532,1.2527304949361804,0.9240296538208357,-0.3511258407025389,-0.0711396623222218,-0.13348779664114346,0.037200000000000046,-0.02459999999999998,9.857713299999997,-0.005148721293383272,0.01038470904936626,0.0020943951023931952,42.407371,-71.123511,67.9
5.816683707000266,1525974.425432436,-4462981.836886632,4279168.892249576,-0.8087458000618454,0.8767865625985736,1.3107549591761334,0.9240142908790744,-0.35113188265546863,-0.07119218531474417,-0.13355023227581317,0.07120000000000004,-0.15159999999999998,9.922713299999996,0.00030543261909900764,0.0016580627893946123,0.0010035643198967395,nan,nan,nan
6.190090671000689,1525974.1231768408,-4462981.5092019085,4279169.382122933,-0.835077671161356,1.1073109649521236,1.5725778168306492,0.9235477646929284,-0.35234182042768036,-0.07120202662275138,-0.1335853280490098,0.04120000000000004,-0.03659999999999998,9.872713299999997,0.006850417314077744,-0.0005235987755982992,0.0010035643198967395,nan,nan,nan
6.2619494050004505,1525974.0631728342,-4462981.429636741,4279169.495119572,-0.8358787010200375,1.1442258406585004,1.6191810440968168,0.9235734107545966,-0.35210814387864314,-0.07161683260435363,-0.1338022414084417,0.07120000000000004,-0.1316,9.912713299999997,-0.005148721293383272,0.013657201396855629,0.0010035643198967395,nan,nan,nan
6.332744681000804,1525974.0043360295,-4462981.349095639,4279169.609092375,-0.8452944398194069,1.193358141731356,1.6614247959226973,0.9235631834117871,-0.3520439353062519,-0.07187994725771532,-0.13390066317739605,0.0012000000000000344,-0.011599999999999971,9.732713299999997,-0.0007853981633974483,0.008203047484373348,-8.726646259971647e-05,nan,nan,nan
6.408416353000575,1525973.940022481,-4462981.258299943,4279169.735500547,-0.857146589593785,1.2502162923930684,1.7230978488427202,0.9235147011734767,-0.3520626759480101,-0.07210791347869051,-0.13406311308963934,-0.018799999999999928,0.16840000000000002,9.852713299999998,0.0013962634015954635,0.007112216701876893,0.0020943951023931952,nan,nan,nan
6.4813399630002095,1525973.877696001,-4462981.167391828,4279169.860793729,-0.86331457677614,1.2981915357184504,1.7750451204118474,0.9234538691802763,-0.35215341157039515,-0.07232770892784951,-0.1341254237395085,0.021200000000000052,0.028400000000000022,9.852713299999998,0.0035779249665883754,0.006021385919380437,-8.726646259971647e-05,nan,nan,nan
6.559224508000625,1525973.8105756235,-4462981.066460942,4279169.998798694,-0.8603122895596906,1.3367946286626111,1.8199810227167434,0.9234361775195926,-0.3521241728522407,-0.07259974248153098,-0.13417701326788317,0.09120000000000006,-0.20159999999999997,9.882713299999997,0.00030543261909900764,0.007112216701876893,-0.0011780972450961724,nan,nan,nan
6.948083584999949,1525974.2515178989,-4462981.717656431,4279168.898421908,0.24348190307951467,-0.1932291098651142,-0.12022921827116173,0.8907404524821033,-0.4241736087940252,-0.10670500465990396,-0.12358089841033873,0.03320000000000005,-0.034599999999999985,9.851713299999997,-0.005148721293383272,0.009293878266869804,-0.0022689280275926286,42.407373,-71.123513,67.8
7.020631252000385,1525974.272916345,-4462981.734638402,4279168.887855544,0.3052077746966561,-0.23544376093136832,-0.17182886860469693,0.8906253548050532,-0.4244010004377173,-0.10673841495840658,-0.12360088808236898,0.09120000000000006,-0.15159999999999998,9.962713299999997,0.005759586531581288,0.0005672320068981565,0.0010035643198967395,nan,nan,nan
7.394800353000392,1525974.3870226424,-4462981.822662424,4279168.823614861,0.5318716154813201,-0.3688426768962635,-0.38261208920152456,0.8907449030466287,-0.4234371407966149,-0.10864259104533867,-0.12438365430449752,0.03620000000000005,-0.04059999999999998,9.858713299999996,-0.004057890510886816,0.011475539831862717,-0.0011780972450961724,nan,nan,nan
7.4661186090006595,1525974.4251670514,-4462981.849114834,4279168.796174945,0.5792122251706685,-0.39389633885455033,-0.4261370558856338,0.8907569717689338,-0.4232696189205309,-0.10892327223114188,-0.1246217006267917,0.05120000000000002,-0.09159999999999997,9.842713299999996,-0.004057890510886816,0.01038470904936626,0.0020943951023931952,nan,nan,nan
7.536337699000796,1525974.4658121879,-4462981.876755775,4279168.766271573,0.6176348381117253,-0.40650946426286705,-0.46111723959421613,0.890676130983148,-0.42336815535035555,-0.10906082447754055,-0.1247444261406186,-0.018799999999999928,0.10840000000000002,9.752713299999996,0.0035779249665883754,0.00493055513688398,0.0020943951023931952,nan,nan,nan
7.63112538400037,1525974.5128602036,-4462981.9077214245,4279168.731146204,0.6650070963432833,-0.4269646470708184,-0.499928133156175,0.8905589627029948,-0.42353485119214335,-0.10929268048686148,-0.12481215615378718,0.021200000000000052,0.03840000000000002,9.832713299999996,0.005759586531581288,0.006021385919380437,-8.726646259971647e-05,nan,nan,nan
7.705588019000061,1525974.5745785227,-4462981.947347378,4279168.684748618,0.7171035802825512,-0.44747517755662214,-0.5437918088107713,0.8905250289683764,-0.42341363831674894,-0.10964692041992022,-0.12515437294565127,-0.028799999999999937,0.10840000000000002,9.802713299999997,-0.0018762289458939042,0.01038470904936626,0.0031852258848896514,nan,nan,nan
7.777973358000054,1525974.6261018068,-4462981.97949809,4279168.645677637,0.7570024983215781,-0.46298038317753937,-0.5724420669568866,0.8904481778038674,-0.4234917546521524,-0.10990734533091026,-0.12520843576401308,-0.048799999999999955,0.16840000000000002,9.842713299999996,0.0035779249665883754,0.007112216701876893,-0.0011780972450961724,nan,nan,nan
7.847850920000383,1525974.6795083277,-4462982.012161353,4279168.605291854,0.8095314826221187,-0.49223633838329,-0.6156137450005306,0.8904813126773018,-0.4233418589940645,-0.11006247326623318,-0.12534334737521782,0.08120000000000005,-0.14159999999999998,9.912713299999997,-0.004057890510886816,0.006021385919380437,0.0010035643198967395,nan,nan,nan
7.918244252000477,1525974.7361843134,-4462982.0466232365,4279168.562192214,0.8528099730007392,-0.51220982364418,-0.6604755491928022,0.8905158117294735,-0.42310951728566115,-0.11034451287177738,-0.12563444781558733,0.0012000000000000344,-0.07159999999999998,9.762713299999996,-0.006239552075879728,0.011475539831862717,0.0031852258848896514,nan,nan,nan
7.993362028000774,1525973.99630918,-4462981.446438553,4279168.9990860475,-0.17359972797544942,0.15185545821959867,0.24793031540792143,0.9089604195087815,-0.39073731019730146,-0.07901192449253223,-0.12195255852555752,-0.038799999999999946,0.14840000000000003,9.762713299999996,0.0013962634015954635,0.01038470904936626,-8.726646259971647e-05,42.407376,-71.123515,67.6
8.064419377000377,1525973.9830706923,-4462981.434858254,4279169.017992889,-0.16719876349908924,0.14981683054095574,0.25363758279597715,0.9088292418528595,-0.39093979967518055,-0.07931203522194516,-0.12208637847354016,0.05120000000000002,-0.08159999999999998,9.892713299999997,0.006850417314077744,0.008203047484373348,0.0010035643198967395,nan,nan,nan
8.438672892000795,1525973.9206032977,-4462981.378884951,4279169.112754827,-0.15594813073531977,0.17106959744000538,0.28961414434333443,0.9083270213814625,-0.39164292848237436,-0.08020274491749385,-0.12298519855037361,0.016200000000000048,0.0034000000000000224,9.836713299999996,0.004668755749084832,0.006021385919380437,0.0031852258848896514,nan,nan,nan
8.51612874500006,1525973.9084824421,-4462981.3655888,4279169.135264691,-0.14505327130189236,0.1635507650282877,0.28831401336678053,0.9082451335493719,-0.3918538981726625,-0.08017349988463301,-0.12293701779271651,0.06120000000000003,-0.18159999999999998,9.892713299999997,0.005759586531581288,-0.001614429558094755,-8.726646259971647e-05,nan,nan,nan
8.58854245800012,1525973.8979247774,-4462981.3536848,4279169.156249552,-0.14031826756424587,0.16697688350979928,0.28791365521941586,0.908271216107547,-0.39162081273756005,-0.08062257059592502,-0.12319309513337748,0.03120000000000006,-0.061599999999999974,9.782713299999998,-0.005148721293383272,0.014748032179352085,0.0010035643198967395,nan,nan,nan
8.676230126000519,1525973.887030898,-4462981.340721227,4279169.178602284,-0.13936573952003214,0.17551200185222643,0.2984763011557809,0.9082845079306064,-0.39146646133032265,-0.08097473393497324,-0.12335459183864017,-0.018799999999999928,0.08840000000000003,9.822713299999997,-0.0029670597283903604,0.01038470904936626,-8.726646259971647e-05,nan,nan,nan
8.749146570000448,1525973.875474729,-4462981.32616782,4279169.203351856,-0.13247959124502146,0.18215801443385998,0.295397142583726,0.9083294099881967,-0.39116884995135587,-0.08142192625657653,-0.12367329646954102,0.04120000000000007,-0.07159999999999998,9.742713299999997,-0.006239552075879728,0.013657201396855629,0.0020943951023931952,nan,nan,nan
8.82135370800006,1525973.865944514,-4462981.313063877,4279169.224601909,-0.13262060001982395,0.1941932556860812,0.3107941926637503,0.9082243152028081,-0.3912605388979507,-0.08188908438322862,-0.12384652757061232,-0.038799999999999946,0.17840000000000003,9.832713299999996,0.004668755749084832,0.013657201396855629,-8.726646259971647e-05,nan,nan,nan
8.891486926000653,1525973.8566148093,-4462981.299402608,4279169.246465918,-0.12324991417704612,0.1961854499018454,0.3114740439950159,0.908232670144921,-0.3911362419014953,-0.08210838473675507,-0.12403253954212703,0.05120000000000002,-0.08159999999999998,9.822713299999997,-0.0029670597283903604,0.008203047484373348,0.0020943951023931952,nan,nan,nan
8.967319883000528,1525973.8472590218,-4462981.284510351,4279169.2701096255,-0.11133103578155293,0.1939298299308162,0.31266257053655877,0.9082782732675733,-0.3909730932692504,-0.08225945671150912,-0.12411285585233797,0.05120000000000002,-0.12159999999999999,9.872713299999997,-0.004057890510886816,0.00493055513688398,-8.726646259971647e-05,nan,nan,nan
9.045283924000614,1525973.8751441375,-4462981.370564412,4279168.915320488,-0.008117449923002396,-0.08175032946643573,-0.1517159867193721,0.9009619185300312,-0.4075789483504349,-0.08678526154800324,-0.12089392521971495,0.0012000000000000344,-0.011599999999999971,9.752713299999996,-0.005148721293383272,0.011475539831862717,0.0020943951023931952,42.407376,-71.123516,67.5
9.117927629000405,1525973.8745117034,-4462981.376933618,4279168.903500225,0.0008983185352101908,-0.08836025158657229,-0.15963880097709277,0.900949623479699,-0.40752665381668224,-0.0869758023478547,-0.12102484349694573,-0.028799999999999937,0.12840000000000001,9.822713299999997,-0.0007853981633974483,0.006021385919380437,0.0010035643198967395,nan,nan,nan
9.291024093000487,1525973.8746670664,-4462981.3922154,4279168.875890919,0.03205329583124186,-0.10936435755565627,-0.21764813852871384,0.9009243717836781,-0.4072993743763682,-0.08760383644796473,-0.12152392503185926,0.03120000000000006,-0.08159999999999998,9.712713299999997,-0.0018762289458939042,0.009293878266869804,0.0020943951023931952,nan,nan,nan
9.36872601899995,1525973.8771615194,-4462981.400726358,4279168.858953095,0.04159894087829699,-0.11134922939464148,-0.2207302741716442,0.9008375470496035,-0.4074037007910305,-0.08779748772079674,-0.12167801820414913,-0.028799999999999937,0.2084,9.822713299999997,0.0035779249665883754,0.006021385919380437,0.0020943951023931952,nan,nan,nan
9.44132322600035,1525973.880179434,-4462981.408804508,4279168.842939583,0.05065933934227318,-0.11798693432571405,-0.22555178618098604,0.9007430812942102,-0.4075199864430374,-0.08808635130281445,-0.12177913376675943,-0.048799999999999955,0.14840000000000003,9.852713299999998,0.004668755749084832,0.008203047484373348,-8.726646259971647e-05,nan,nan,nan
9.519474260000607,1525973.8841256406,-4462981.417995326,4279168.825369793,0.07444093616505548,-0.14067573428081626,-0.24611241615353774,0.9006640320174699,-0.40767585737518497,-0.08816689041236564,-0.12178381146606651,0.07120000000000004,-0.15159999999999998,9.912713299999997,0.004668755749084832,0.0016580627893946123,-8.726646259971647e-05,nan,nan,nan
10.004180025000096,1525973.9194680958,-4462981.484784194,4279168.708522565,0.16890563133457642,-0.20485261237580432,-0.34182248933861126,0.9010461656365822,-0.40385839140668583,-0.09574006345530647,-0.12588903005559068,0.010200000000000048,0.01440000000000002,9.814713299999998,-0.012784536770858463,0.03765547861177766,0.0010035643198967395,nan,nan,nan
10.080961987000592,1525973.693421768,-4462981.343235911,4279168.828460618,-0.18256028825177864,-0.0004846136014942104,-0.046337630337554114,0.9074768756581387,-0.3927854949483222,-0.0832324502831572,-0.12360273006917283,-0.038799999999999946,0.1584,9.822713299999997,0.0079412480965742,-0.010341075818066404,-0.0011780972450961724,42.407376,-71.123518,67.4
10.151563520000309,1525973.6795211737,-4462981.343272811,4279168.824932355,-0.16463163479959053,-0.0030978997320010304,-0.04549778023635809,0.907399015251947,-0.39263570554319327,-0.08413669578724478,-0.12403728000543457,0.11120000000000002,-0.10159999999999998,9.892713299999997,-0.0007853981633974483,0.0267471707868131,0.0010035643198967395,nan,nan,nan
10.224377884000205,1525973.667564987,-4462981.343497792,4279168.82162813,-0.14845929036973363,-0.007892376115325894,-0.04672554215492419,0.9073514009325827,-0.3928164031260265,-0.08396096142562781,-0.12393250652690382,0.07120000000000004,-0.14159999999999998,9.892713299999997,0.004668755749084832,-0.00597775268808058,-8.726646259971647e-05,nan,nan,nan
10.296117040000354,1525973.6568734285,-4462981.344066176,4279168.818263107,-0.1335966231966084,-0.007771219753571812,-0.04997292391218028,0.9073995502347701,-0.39250452130811647,-0.08446613577576553,-0.12422451227627916,0.08120000000000005,-0.11159999999999998,9.822713299999997,-0.007330382858376184,0.016929693744344998,0.0010035643198967395,nan,nan,nan
10.372253027000625,1525973.6467033483,-4462981.344657762,4279168.814458904,-0.12779732169886465,0.006623532637606677,-0.041925476428952224,0.9074322747682183,-0.3923838370307295,-0.08458493628216297,-0.12428588116478613,-0.008799999999999975,0.13840000000000002,9.762713299999996,-0.0029670597283903604,0.0038397243543875246,-8.726646259971647e-05,nan,nan,nan
10.445209053000326,1525973.6374222438,-4462981.344176737,4279168.8114141235,-0.12275291994100787,0.01809128575827257,-0.0320936140342763,0.9073870951059152,-0.39228478650727844,-0.0851238799843076,-0.12456015222915891,-0.028799999999999937,0.13840000000000002,9.802713299999997,-0.0007853981633974483,0.016929693744344998,0.0010035643198967395,nan,nan,nan
10.523109139000553,1525973.6278656574,-4462981.34276829,4279168.808915565,-0.10362423197158205,0.014134895777025647,-0.028283304317252622,0.9072318720158074,-0.39258873004854034,-0.08528685117728911,-0.12462171965824066,0.07120000000000004,-0.09159999999999997,9.932713299999998,0.009032078879070655,0.0038397243543875246,0.0010035643198967395,nan,nan,nan
10.906681795000623,1525973.5891380531,-4462981.337485639,4279168.798345213,-0.04099936228582385,0.037049729889697125,-0.0010790637987117546,0.9067001332199203,-0.39315467675018756,-0.08707692285070542,-0.12546664350349374,0.025200000000000045,0.019400000000000018,9.851713299999997,0.004668755749084832,0.01038470904936626,0.0010035643198967395,nan,nan,nan
10.979035261000718,1525973.5857750578,-4462981.334446615,4279168.798256702,-0.015279636422316417,0.03342376160099736,-0.003526721451276471,0.9066510272658049,-0.3932329620444689,-0.0871921719991238,-0.1254961275036619,0.10120000000000007,-0.1316,9.892713299999997,0.0024870941840919197,0.002748893571891069,-8.726646259971647e-05,nan,nan,nan
11.049191811000128,1525973.5846962926,-4462981.332086847,4279168.79800771,-0.001077517684809598,0.03890511540247904,-0.009497112536398344,0.9066846034451272,-0.3929663378003336,-0.0876565018831968,-0.1257649612002249,0.03120000000000006,-0.07159999999999998,9.742713299999997,-0.006239552075879728,0.01583886296184854,0.0010035643198967395,nan,nan,nan
11.130676009000126,1525973.2073539572,-4462981.190650152,4279169.004322394,-0.541080723596512,0.2223663587017261,0.34829075630858986,0.9131061005246106,-0.3815714966960609,-0.06964363576362029,-0.1256590889997152,-0.028799999999999937,0.1584,9.812713299999997,-0.004057890510886816,0.01583886296184854,0.0010035643198967395,42.407379,-71.123523,67.3
11.199749351000719,1525973.1671734287,-4462981.174137278,4279169.030186384,-0.5572214545386883,0.24536917801967195,0.3731396082188884,0.9129947354714568,-0.3817886024987101,-0.0697905230619035,-0.12572732181582008,-0.028799999999999937,0.1584,9.772713299999998,0.006850417314077744,0.0038397243543875246,0.0010035643198967395,nan,nan,nan
11.27566772099999,1525973.1246990466,-4462981.155433935,4279169.058629069,-0.5653680960273797,0.25944077791909714,0.3932296952886209,0.9129533211470692,-0.3817978238687226,-0.0700828575044774,-0.12583739005715947,0.04120000000000007,0.008400000000000019,9.832713299999996,0.0013962634015954635,0.008203047484373348,-8.726646259971647e-05,nan,nan,nan
11.548444558000483,1525972.9703221119,-4462981.084592173,4279169.166002646,-0.4700034168013314,0.32280059045922604,0.41830044301861474,0.9131711739809728,-0.38162595753476214,-0.06862988468349843,-0.12557856119164637,0.4912,-0.16159999999999997,9.782713299999998,-0.0029670597283903604,-0.010341075818066404,0.0020943951023931952,nan,nan,nan
11.933810895000533,1525972.7938826864,-4462980.963412733,4279169.323032759,-0.5083384739702181,0.3978721881725017,0.51322610561759,0.9136274344069351,-0.3781515606244846,-0.07486968881475531,-0.12915432067800353,0.07220000000000006,0.0034000000000000198,9.815713299999997,-0.014966198335851376,0.03983714017677058,0.0031852258848896514,nan,nan,nan
12.00704882700029,1525972.7517268462,-4462980.9304177165,4279169.365593924,-0.5021721305908762,0.42406131139048353,0.5275364114032568,0.913688958873935,-0.3778073757362204,-0.07531380980449047,-0.12946777159067388,0.13120000000000004,-0.061599999999999974,9.722713299999997,-0.007330382858376184,0.013657201396855629,0.0020943951023931952,nan,nan,nan
12.078883646000577,1525972.71551849,-4462980.899841422,4279169.403631133,-0.5156205863136238,0.446629583204708,0.5563276836607114,0.9136868967351817,-0.3778812214426815,-0.07512361265046776,-0.12937728005530863,-0.13879999999999995,0.13840000000000002,9.822713299999997,0.0013962634015954635,-0.00597775268808058,-8.726646259971647e-05,nan,nan,nan
12.156758274000822,1525972.9229959536,-4462980.887526023,4279169.268721208,-0.12207713319007324,0.40591039567435105,0.3439703996010065,0.9095064918183314,-0.38450553181206926,-0.0903520321781972,-0.12957603244522542,-0.048799999999999955,0.13840000000000002,9.812713299999997,0.00030543261909900764,0.023474678439323732,0.0010035643198967395,42.407383,-71.123525,67.2
12.230031204000625,1525972.913490987,-4462980.855921703,4279169.295502859,-0.08982074523395955,0.4072395342270527,0.3493687939692216,0.9093830535939313,-0.3848024561571429,-0.09030248074395847,-0.12959550185033955,0.10120000000000007,-0.21159999999999998,9.942713299999998,0.0079412480965742,-0.001614429558094755,0.0020943951023931952,nan,nan,nan
12.301851441000508,1525972.906964567,-4462980.826331477,4279169.320888169,-0.06853372867442648,0.41133417747957973,0.3521330245897035,0.9094341414035206,-0.3844855779316752,-0.09079143689330721,-0.12983565903010977,0.0012000000000000344,-0.18159999999999998,9.862713299999998,-0.007330382858376184,0.01583886296184854,-8.726646259971647e-05,nan,nan,nan
12.380167635000362,1525972.9015969236,-4462980.794115293,4279169.348467648,-0.047966738400535225,0.43595270960175075,0.36564255622423714,0.9094877120530936,-0.384064970044886,-0.09135819190212292,-0.13030687525212217,0.03120000000000006,0.08840000000000003,9.772713299999998,-0.009512044423369096,0.019111355309337906,0.004276056667386108,nan,nan,nan
12.453060455000013,1525972.898111187,-4462980.762434666,4279169.375038845,-0.03352555625642231,0.45599673778028516,0.3814428004695045,0.9094835928737625,-0.3840383577058489,-0.09137902067794366,-0.13039942193397203,-0.05879999999999996,0.09840000000000002,9.812713299999997,-0.0007853981633974483,0.0016580627893946123,0.0020943951023931952,nan,nan,nan
12.530503892000525,1525972.89551856,-4462980.727171135,4279169.404536907,-0.00482373841759659,0.467995170880648,0.39293786831172284,0.9094136573106011,-0.38402785731860595,-0.09181197966868207,-0.130613803429431,0.07120000000000004,-0.061599999999999974,9.892713299999997,0.0013962634015954635,0.012566370614359171,0.0010035643198967395,nan,nan,nan
12.63624365600026,1525972.8951668849,-4462980.693051915,4279169.43318407,0.01651687812574315,0.4859617246200638,0.40827376233165674,0.9093608836067478,-0.3841525591680964,-0.091796586690957,-0.13062534929788344,0.011200000000000043,0.058400000000000035,9.852713299999998,0.0035779249665883754,-0.0005235987755982992,0.0010035643198967395,nan,nan,nan
13.00706355300008,1525972.9018298008,-4462980.497014743,4279169.597881882,0.10361284197192216,0.6163825208115348,0.5004085653949288,0.9092939487812599,-0.38340832691245064,-0.09376036536803142,-0.13187707915623412,-0.038799999999999946,0.13840000000000002,9.792713299999997,-0.0025307274153917782,0.011802789066611653,0.001658062789394613,nan,nan,nan
13.081715681000787,1525972.9096190971,-4462980.450676992,4279169.635501067,0.12721692974024668,0.6409144810864047,0.5149098143074976,0.9093240237786936,-0.3831442008651753,-0.09411197258537063,-0.13218652841780004,0.011200000000000043,0.08840000000000003,9.792713299999997,-0.006239552075879728,0.012566370614359171,0.0031852258848896514,nan,nan,nan
13.15989425600037,1525972.5530664541,-4462980.540653039,4279169.609720349,-0.42464013714523097,0.41753410870127783,0.4717073359094234,0.9092806059816758,-0.38993820935170903,-0.07506214435864261,-0.12458991738583246,-0.05879999999999996,0.2084,9.802713299999997,0.006850417314077744,0.008203047484373348,0.0020943951023931952,42.407388,-71.123528,67.1
