# t [sec],r_ecef_X,r_ecef_Y,r_ecef_Z,v_ecef_X,v_ecef_Y,v_ecef_Z,q_e2b_scalar,q_e2b_i,q_e2b_j,q_e2b_k,accel_X [m/s^2],accel_Y [m/s^2],accel_Z [m/s^2],gyro_X [rad/s],gyro_Y [rad/s],gyro_Z [rad/s],gps_lat [deg],gps_long [deg],gps_alt [m]
0.0,1525319.7261179085,-4462450.655979504,4279868.5345733315,0.0,0.0,0.0,0.901797015,-0.39979036,-0.066508461,-0.150021455,0.0,0.0,0.0,0.0,0.0,0.0,0.0,0.0,0.0
0.09529037599986623,1525319.4696308041,-4462450.600551214,4279868.547823513,-0.06948389828644701,0.004492580628515545,0.008675938866817999,0.9019116956314548,-0.39977326936122204,-0.06653819682469575,-0.14936296497960003,-0.7245833333333334,0.29874999999999974,9.688563299999997,-0.0003817907738737601,-0.007035858547102139,-0.01827141560681563,42.416361,-71.128953,12.3
0.18058642800042435,1525319.4631968949,-4462450.60013522,4279868.548626867,-0.12090777565812284,0.009902960042713186,0.012635498664742504,0.9022627148828685,-0.3993514597337773,-0.06643975544053847,-0.14841214368926656,-0.5045833333333334,0.2287499999999998,9.658563299999997,-0.010199267816341864,-0.009217520112095052,-0.01936224638931209,nan,nan,nan
0.26678919500045595,1525319.4527412883,-4462450.599278853,4279868.549719533,-0.10294769514377043,0.0013599226423273193,0.024981026249964622,0.9025257854359884,-0.39909690694167493,-0.06655992125896565,-0.1474403029415153,0.17541666666666667,0.02874999999999983,10.018563299999997,-0.005835944686356041,-0.005945027764605683,-0.022634738736801458,nan,nan,nan
0.34864288000062515,1525319.4443182133,-4462450.599167585,4279868.551763455,-0.1113491363278913,0.008451861284150323,0.04443101294532609,0.9029101645299469,-0.3985999796785596,-0.06646638033031878,-0.14647017386241695,-0.05458333333333334,0.2787499999999997,9.878563299999998,-0.013471760163831233,-0.010308350894591508,-0.022634738736801458,nan,nan,nan
0.4365357490005408,1525319.4345372452,-4462450.5984251695,4279868.5556663,-0.12047098130606528,0.011444841086587835,0.06701984902962682,0.902818669233626,-0.39909123627719695,-0.0668873595680832,-0.145501605821786,-0.06458333333333334,0.2487499999999997,9.928563299999997,0.013799009398580166,-0.0015817046346198599,-0.022634738736801458,nan,nan,nan
0.5191635279998081,1525319.424582117,-4462450.597479424,4279868.561204489,-0.11922054224151783,0.00820413709924395,0.0994179641767659,0.9028263496301083,-0.39923481394797317,-0.06744558266338348,-0.14480068950610306,0.025416666666666657,0.28874999999999973,10.098563299999997,0.006163193921104975,0.004963280060358876,-0.020453077171808547,nan,nan,nan
0.6018055160002405,1525319.4147271102,-4462450.596801254,4279868.569422576,-0.12805966175592354,0.010376857014948618,0.13490820452364832,0.902818561819234,-0.39950521470180483,-0.06773205862705221,-0.14396734578230577,-0.07458333333333333,0.3887499999999997,10.048563299999998,0.008344855486097888,-0.0026725354171163156,-0.020453077171808547,nan,nan,nan
0.6896302210006979,1525319.4034780567,-4462450.595889727,4279868.5812732205,-0.1370686021713089,0.00283962621173706,0.17923346064623874,0.9026258122855257,-0.4000255230591052,-0.06852221190228573,-0.1433559588226034,-0.10458333333333333,0.3787499999999997,10.178563299999997,0.015980670963573078,0.009326603190344701,-0.01827141560681563,nan,nan,nan
0.7724787840006684,1525319.3921188305,-4462450.595654399,4279868.596126757,-0.1789789086435972,0.001120943837295777,0.20899499676452044,0.9026094361886131,-0.40023498706233235,-0.06893016657032003,-0.14267723549264036,-0.4745833333333333,0.4087499999999997,9.938563299999997,0.007254024703601432,0.0016907877128695082,-0.01827141560681563,nan,nan,nan
1.1612869930004308,1525318.4645568999,-4462450.773733754,4279868.714583528,-2.1522572721843223,-0.3527536678257994,0.39149736948643415,0.908247811449033,-0.4038173309475495,0.0027813028650103453,-0.10958896447890082,-0.4945833333333333,0.3887499999999997,9.768563299999997,0.004308781590861,-0.0003817907738737581,-0.020234911015309255,42.416363,-71.128965,12.3
1.2441073489999326,1525318.2747527768,-4462450.8048425345,4279868.749109055,-2.3508146283813827,-0.37151152169241597,0.41906835838104733,0.9081834234290128,-0.4039970847354823,0.002467058246723271,-0.10946752538695058,-0.6545833333333333,0.4687499999999998,9.858563299999997,0.0050723631386085195,0.004963280060358876,-0.005181446216858161,nan,nan,nan
1.627599721000479,1525317.3734957955,-4462450.947272886,4279868.90977178,-3.3508163951238283,-0.41672634784704965,0.5560193999745233,0.9083659712271491,-0.4045017173773279,0.0012347580787268996,-0.1060570548553128,-0.9845833333333334,0.6387499999999997,9.788563299999998,0.002672535417116316,-0.0015817046346198592,-0.01881683099806386,nan,nan,nan
2.009091546000491,1525316.095752861,-4462451.106180173,4279869.121794695,-4.218597204978812,-0.4363599408007769,0.7381365084466198,0.9085354021583069,-0.40499831295804467,9.069935272545402e-06,-0.10266347939098318,-0.6345833333333333,0.7087499999999998,9.848563299999997,0.002672535417116316,-0.0015817046346198592,-0.01881683099806386,nan,nan,nan
2.0946534630002134,1525315.7345767922,-4462451.143539219,4279869.184990404,-4.4385405098236745,-0.44056569160205683,0.795125075766984,0.9081385188532998,-0.4058147522368643,-0.00013518606906439204,-0.10295047218609173,-0.9045833333333333,0.9087499999999997,9.948563299999998,0.02143482487605536,0.0038724492778624206,0.005726861608106398,nan,nan,nan
2.1821007650005413,1525318.5077750566,-4462451.018624881,4279868.5064020725,0.34060924451973396,-0.5718722389639979,0.05965299607674113,0.8773709559529607,-0.43144381927418235,-0.14531636071016274,-0.15152423016466146,-1.1545833333333335,1.0287499999999998,9.998563299999997,0.015980670963573078,0.015871587885323436,0.006817692390602856,42.41636,-71.128965,12.3
2.2543389860002208,1525318.537608199,-4462451.068713792,4279868.511626935,0.35999248815014206,-0.587185288172583,0.07467500043032727,0.8771438590363534,-0.43192397213228023,-0.14509077791170516,-0.15168717669601553,-1.2545833333333334,0.9887499999999998,9.968563299999998,0.010526517051090799,-0.0037633661996127714,0.00790852317309931,nan,nan,nan
2.3289647820001846,1525318.5645151925,-4462451.112601904,4279868.517208383,0.3835104789636302,-0.5938298663491753,0.08312757113673203,0.8770415590008027,-0.43189559959593865,-0.14517125818724588,-0.15228132251915621,-1.1245833333333335,0.9887499999999998,9.908563299999997,-0.0014726215563702159,0.009326603190344701,0.013362677085581587,nan,nan,nan
2.4048754870000266,1525318.5934207835,-4462451.15735949,4279868.523473796,0.4018108915958074,-0.5997185014809243,0.08728236937934508,0.8768800114127924,-0.43228549680961575,-0.14474958951623637,-0.15250656288957218,-1.1845833333333335,0.9587499999999998,9.838563299999997,0.008344855486097888,-0.008126689329598596,0.012271846303085136,nan,nan,nan
2.479397287000211,1525318.6234211575,-4462451.202136224,4279868.529990553,0.4401397343899559,-0.5973709462856581,0.0893224417489446,0.8767422191138761,-0.43244892829036446,-0.14458694746872547,-0.15298895653677955,-0.8845833333333333,0.9687499999999998,9.848563299999997,0.002890701573615607,0.0016907877128695082,0.014453507868078044,nan,nan,nan
2.6900192680004693,1525318.7005859632,-4462451.30686663,4279868.545650464,0.49855365148378894,-0.6027995869867869,0.09569747350611729,0.8752951064313825,-0.4343844932057657,-0.14577012213515553,-0.15465982273716583,-1.0745833333333334,0.9687499999999998,9.828563299999997,0.02579814800604118,0.019144080232812805,0.01663516943307096,nan,nan,nan
3.063252368000576,1525318.9041965816,-4462451.553051562,4279868.584733563,0.6176985238522051,-0.7082132641227151,0.08365733697512784,0.8740299115344016,-0.43631861981049025,-0.14676687450604037,-0.15542606233932635,-1.2245833333333334,0.8387499999999997,9.928563299999997,0.011181015520588672,0.0053996123733574585,0.003545200043113486,nan,nan,nan
3.1379289540000173,1525318.9506209656,-4462451.606278765,4279868.5910209995,0.667828811980503,-0.720190567580841,0.08147747636654284,0.8733271500540232,-0.4373678748941433,-0.1472387411458636,-0.15598007773951367,-0.8645833333333334,0.8887499999999997,9.998563299999997,0.03234313270101992,0.015871587885323436,0.014453507868078044,nan,nan,nan
3.316816696999922,1525318.5547636894,-4462451.069912703,4279868.54318698,0.22959213607990836,-0.16365734167160395,0.36597123250621727,0.8813881934983244,-0.42293285501024,-0.14419345300528988,-0.15326741722167658,-1.2745833333333334,1.1287499999999997,9.818563299999997,0.0203439940935589,-0.0015817046346198599,0.01663516943307096,42.41636,-71.128965,12.3
3.3896061470004497,1525318.5727258376,-4462451.08271644,4279868.571818751,0.23714810381613294,-0.14266184143273397,0.3862549817009922,0.8810646765773976,-0.4235248189771637,-0.14404347444262658,-0.1536334645354564,-1.2145833333333333,1.1487499999999997,9.678563299999997,0.014889840181076624,-0.0004908738521234033,0.013362677085581587,nan,nan,nan
3.461938989999908,1525318.5898663518,-4462451.093027706,4279868.599736365,0.28720267196324295,-0.13545569005539354,0.3982535241833383,0.8811523067808285,-0.4234373453681392,-0.1435787045765039,-0.15380696652390438,-0.7245833333333334,0.8987499999999997,9.968563299999998,-0.005835944686356041,-0.009217520112095052,0.008999353955595767,nan,nan,nan
3.5387886580001577,1525318.611961511,-4462451.103448623,4279868.630374921,0.3120574479059855,-0.1338656711113519,0.42323634827169837,0.8810328134938681,-0.4238316294416676,-0.14311167511961126,-0.15384076323622076,-1.1045833333333335,1.0287499999999998,9.978563299999998,0.008344855486097888,-0.011399181677087962,0.00790852317309931,nan,nan,nan
3.61027707500034,1525318.6342391244,-4462451.113005221,4279868.660589536,0.3330638278200432,-0.1202857896751483,0.4345026822251675,0.8809167221084403,-0.4238077960495402,-0.1431948997038438,-0.15449240101992892,-1.0345833333333334,1.0087499999999998,9.748563299999997,-0.0014726215563702159,0.010417433972841155,0.015544338650574502,nan,nan,nan
3.69804640700022,1525318.660132384,-4462451.122356555,4279868.694368919,0.38163118592692935,-0.10680676181370202,0.445758868294884,0.8811113784328104,-0.42343865889478427,-0.1427429653861187,-0.15481242630726044,-0.7445833333333334,0.9387499999999998,9.878563299999998,-0.013471760163831233,-0.005945027764605683,0.010090184738092221,nan,nan,nan
3.770678488000158,1525318.6916917348,-4462451.131189042,4279868.731231369,0.4337775373398847,-0.09751371333147646,0.4417086544627137,0.8812428715685469,-0.4229082933241173,-0.14297441602502756,-0.15529936788780058,-0.7345833333333334,0.7387499999999998,9.808563299999998,-0.013471760163831233,0.011508264755337613,0.005726861608106398,nan,nan,nan
3.843499311999949,1525318.7232455418,-4462451.138282375,4279868.7633621,0.48642165984625807,-0.10507725872752877,0.438452173590766,0.8813285971489405,-0.4226543489688763,-0.1431058283364537,-0.15538316381788958,-0.7445833333333334,0.5887499999999998,9.998563299999997,-0.006926775468852495,0.004963280060358876,-0.0008181230868723362,nan,nan,nan
3.91868875199998,1525318.7598770137,-4462451.14619554,4279868.796381083,0.5491776918389898,-0.1148906246838462,0.4262560479158243,0.8813983930807248,-0.42274731534166204,-0.14283671340795387,-0.15498146310346783,-0.6445833333333333,0.45874999999999977,9.988563299999997,0.0017998707911191514,-0.011399181677087962,-0.006272276999354617,nan,nan,nan
3.9906274850000045,1525318.7993455138,-4462451.154452541,4279868.827015406,0.6073326525551924,-0.1255574616207969,0.4260894424600041,0.881377147315246,-0.4230964226557077,-0.14250073554355866,-0.15445802747889323,-0.6845833333333333,0.5787499999999998,10.088563299999997,0.009435686268594343,-0.015762504807073786,-0.007363107781851074,nan,nan,nan
4.064513600999817,1525318.8440334573,-4462451.1636911435,4279868.858367353,0.6387967060300731,-0.12139906310308818,0.41602923190045094,0.8809883150314511,-0.4241361067816052,-0.14256691037731561,-0.15376224609570982,-0.9245833333333333,0.6587499999999997,9.718563299999998,0.03234313270101992,-0.009217520112095052,-0.011726430911836897,nan,nan,nan
4.443465897999886,1525318.3395163747,-4462451.14347905,4279868.546351127,0.026974474930995362,-0.34513967853792354,0.1660279846173534,0.8802773851307761,-0.43606339618014983,-0.11730385469562234,-0.14560304244571562,-0.6845833333333333,0.9187499999999997,9.958563299999998,0.0025634523388666708,-0.0036542831213631248,0.003545200043113486,42.41636,-71.128968,12.3
4.514731406999999,1525318.341595602,-4462451.17008286,4279868.559148777,0.06927890492955885,-0.3680355600130116,0.16953660060388248,0.8805656599012113,-0.4356943163594389,-0.11775575380793826,-0.14459655700151783,-0.40458333333333335,0.7687499999999998,10.148563299999998,-0.006926775468852495,-0.0004908738521234033,-0.03027055421427665,nan,nan,nan
4.899347194000256,1525318.3675337895,-4462451.307876253,4279868.622623686,0.12023204381628155,-0.4669546805022759,0.15135697461245184,0.8813170425058727,-0.4364714332581605,-0.11760262489706363,-0.13763205190773298,-0.7705833333333334,0.7687499999999997,9.931563299999997,0.006163193921104975,-0.0179441663720667,-0.03245221577926956,nan,nan,nan
4.968518117000713,1525318.3770380074,-4462451.344788534,4279868.634588297,0.09093797179641944,-0.4396008617166621,0.15546251120218274,0.8817473552692688,-0.4357086842875153,-0.11808608173477964,-0.136876666270634,-0.9845833333333334,1.2887499999999998,9.378563299999998,-0.017835083293817056,0.0038724492778624206,-0.025907231084290827,nan,nan,nan
5.044934469000509,1525318.3839635276,-4462451.378267009,4279868.646427782,0.10589364245190272,-0.45868134400645494,0.15860668757656188,0.8824683650089279,-0.43533217928020723,-0.11675219867485957,-0.1345526034788802,-0.6645833333333333,0.8387499999999997,9.998563299999997,-0.014562590946327687,-0.05830490532443557,-0.04226969282173766,nan,nan,nan
5.7293875969999135,1525314.3544030392,-4462452.138647412,4279868.972129116,-5.703624124176296,-1.6719840282919007,0.810515051264872,0.8996070274627909,-0.43266660020989156,0.030088893505979267,-0.051004590447375396,-0.7215833333333332,0.7777499999999996,9.896563299999999,-0.002345286182367381,-0.009872018581592925,-0.014126258633329097,42.416365,-71.129018,12.3
5.8057084940001005,1525313.8318447424,-4462452.2918323185,4279869.046387404,-5.994680732263202,-1.7902140008430496,0.8947441886690447,0.899747257130774,-0.43278683586920363,0.02653821567802905,-0.04945858519349001,-0.6245833333333334,0.8887499999999997,11.068563299999997,0.003981532356112064,0.05514149605519585,-0.06408630847166678,nan,nan,nan
5.877244867000627,1525313.402581667,-4462452.420024762,4279869.110457646,-6.0381092010227055,-1.8734056294979173,0.975134660478213,0.8983179054720564,-0.43599602552897915,0.02444763554122366,-0.04831894146624364,1.8954166666666665,0.8387499999999997,11.078563299999997,0.09997464121580019,0.03332488040526673,-0.05426883142919868,nan,nan,nan
5.948534666999876,1525312.9730310012,-4462452.553298707,4279869.179828657,-6.303192662601629,-1.8845896225464909,1.0429854661668039,0.8977293148915978,-0.4374596339648643,0.024685623003384886,-0.045845026003568955,-1.1845833333333335,1.7487499999999998,10.188563299999997,0.04216060974348802,-0.03866995123949936,-0.05972298534168096,nan,nan,nan
6.020514439000181,1525312.5193315174,-4462452.688950175,4279869.254902035,-6.516054859347905,-1.8740453146617302,1.0572448188385142,0.9021790387397417,-0.42845386624164,0.024256761681112765,-0.04372501150046788,-0.44458333333333333,1.2887499999999998,9.478563299999998,-0.27963447109296646,-0.0004908738521234033,-0.057541323776688046,nan,nan,nan
6.09866005799995,1525312.009267573,-4462452.835646752,4279869.337661077,-6.787480024051007,-1.9132451879825958,0.9762149785549951,0.8997261276830009,-0.4338703337074079,0.024799633324912657,-0.04042780524427257,-1.0945833333333335,-0.21125000000000016,9.228563299999998,0.1490620264281407,-0.05612324375944266,-0.07063129316664551,nan,nan,nan
6.472593965000669,1525309.4746906785,-4462453.550089672,4279869.702198714,-7.919438303627587,-2.0861631845661828,1.0835673847766212,0.9011408356342789,-0.43191992055449546,0.014616669549635893,-0.034303499946397746,-0.5115833333333334,0.9027499999999998,10.024563299999997,-0.011290098598838321,0.035506541970259646,-0.05317800064670222,nan,nan,nan
6.550627962999897,1525308.855837109,-4462453.713110013,4279869.786872591,-8.033206591237981,-2.1968998506424473,1.0822264019717114,0.9015060025546341,-0.431293551678772,0.012294316265892639,-0.033491043318668375,0.8454166666666667,-0.10125000000000028,10.578563299999997,-0.0167442525113206,0.04532401901272775,-0.04445135438673058,nan,nan,nan
6.622664900000018,1525308.274134497,-4462453.872192487,4279869.8652390465,-8.233741226620538,-2.2639382670743786,1.0138963603010187,0.9011115965362044,-0.43228717007091366,0.012944039632455153,-0.030953926645759303,-0.5245833333333334,-0.43125000000000036,9.608563299999997,0.027979809571034096,-0.04739659749947101,-0.05535966221169514,nan,nan,nan
6.7117113499998595,1525307.6251200545,-4462454.050644614,4279869.94515817,-8.401779245887685,-2.3460724489892946,0.9463870760189441,0.8967417192328173,-0.4415141086021732,0.01251614176529413,-0.027621144883124168,0.14541666666666664,-0.46125000000000016,9.758563299999997,0.25814510467778634,-0.03539745889200999,-0.08044877020911362,nan,nan,nan
6.788921004000258,1525312.3658768588,-4462452.5468207775,4279869.358594845,-1.1204639831038952,-1.001687688459506,0.8933356158496722,0.8833477590885424,-0.42156152611668235,-0.17080957792676724,-0.11316671267050156,0.7954166666666667,1.1587499999999997,9.648563299999998,0.10651962591077892,-0.008126689329598596,-0.0662679700366597,42.416369,-71.129041,12.3
6.861217098000452,1525312.2784225005,-4462452.625004419,4279869.4283214,-0.8735168004846126,-0.8725941673491304,0.823731846259746,0.8808427666409805,-0.4271284790955396,-0.1720390044574041,-0.10990843599944296,2.075416666666667,0.9587499999999998,9.208563299999998,0.17087864207806983,-0.012490012459584419,-0.05535966221169514,nan,nan,nan
6.933924425999976,1525312.2149214733,-4462452.688438375,4279869.4882032685,-0.7030374078458478,-0.7975935028973453,0.7874413872395041,0.881033558029512,-0.42565231389457053,-0.17492075701898102,-0.10955686479042327,1.0354166666666667,1.0587499999999999,9.538563299999998,-0.027652560336285163,0.06932229622764978,-0.04990550829921286,nan,nan,nan
7.010490773000129,1525312.1612988887,-4462452.7492730105,4279869.548263575,-0.48397516285873227,-0.8040776114918337,0.7700701645075372,0.8947282724314559,-0.39067770672577873,-0.18053891277847622,-0.11932287923453241,1.0254166666666666,0.5487499999999997,10.708563299999998,-0.9897653104981593,0.2765801449019764,-0.03681553890925539,nan,nan,nan
7.082006771000124,1525312.126542662,-4462452.807017097,4279869.603565448,-0.45412618989859266,-0.8951742589094909,0.6528805563374425,0.8946476959250944,-0.3924568257183494,-0.17942320121931984,-0.11571713591319471,-1.5245833333333334,-1.9112500000000001,9.608563299999997,0.059613902263431315,-0.0724857054968895,-0.0684496316016526,nan,nan,nan
7.155652813000415,1525312.0931457852,-4462452.872849073,4279869.6515789125,-0.016381579983215877,-0.7730800191584619,0.5936540569229083,0.8942287137451376,-0.3966319937620816,-0.1757976704288969,-0.11015102662503987,4.395416666666667,0.31874999999999976,10.488563299999997,0.12179125686572931,-0.15866133731410953,-0.07499461629663134,nan,nan,nan
7.227186853000603,1525312.0919800855,-4462452.927860812,4279869.693822848,0.17116593215284204,-0.890342815222896,0.40962349866393466,0.8939563828968581,-0.4008519174618508,-0.1712568786560226,-0.1040711670678497,0.7754166666666666,-2.8912500000000003,10.208563299999998,0.12506374921321867,-0.1935679223539961,-0.08044877020911362,nan,nan,nan
7.304009856000448,1525312.1051534005,-4462452.996383597,4279869.725348393,0.3679216086793792,-0.9005149440534288,0.312322380655118,0.8969259286161589,-0.39590531965976933,-0.16876899676673027,-0.10148833789274658,1.0554166666666667,-0.8012500000000002,9.978563299999998,-0.14109896171591657,-0.08448484410435052,-0.06408630847166678,nan,nan,nan
7.375352570000359,1525312.1314879248,-4462453.060839265,4279869.747703322,0.4975669379272937,-0.8201634507054345,0.266173504054391,0.8962521633108476,-0.3989560522525213,-0.16748781881216768,-0.09753952654178685,0.6954166666666667,0.42874999999999974,9.218563299999998,0.09888381043330373,-0.08121235175686115,-0.0684496316016526,nan,nan,nan
7.453975462000017,1525312.1706364367,-4462453.1253696345,4279869.768645824,0.7208007406043764,-0.7383201137507123,0.160531515111642,0.8949988062201497,-0.40227491528968085,-0.16795917899044302,-0.09456079601392887,1.8254166666666665,-0.1212500000000003,9.218563299999998,0.1021563027807931,-0.022307489502052524,-0.05535966221169514,nan,nan,nan
7.526194976000625,1525312.2224935924,-4462453.178487201,4279869.780195074,0.9232216448689865,-0.6090130824600273,0.09441504417603402,0.894809368501771,-0.40106699260858575,-0.1713186420927479,-0.09545357462980725,1.9554166666666666,0.7787499999999997,8.948563299999998,-0.023289237206299333,0.09768389657255763,-0.020453077171808547,nan,nan,nan
7.604226557000402,1525312.294720982,-4462453.226132775,4279869.787581547,1.109736629258287,-0.612644904303631,-0.014511602762623477,0.8958830387895272,-0.3948984859141896,-0.1780710153192688,-0.09868880732804594,1.0354166666666667,-0.7912500000000002,9.768563299999997,-0.14982560797588823,0.19804032856223158,-0.02481640030179437,nan,nan,nan
7.694254719000128,1525312.3753385828,-4462453.2706387965,4279869.786527341,1.2224878212584946,-0.6416773414469972,-0.06590063610693214,0.8962951713910483,-0.3912339020272487,-0.1836089250756029,-0.09939196564587358,-0.15458333333333335,-0.6012500000000003,10.108563299999997,-0.08328493024360442,0.15222543569738042,-0.06190464690667387,nan,nan,nan
8.1740565529999,1525310.3597279515,-4462452.715279857,4279869.784992557,0.4033546381574751,0.02593576089833982,-0.04590434562370871,0.9053433544389317,-0.37540279904696255,-0.14305999479009923,-0.1376952703921603,1.1084166666666666,-0.5042500000000002,9.825563299999999,-0.052741668333703653,0.03332488040526673,-0.0488146775167164,42.416375,-71.129066,12.3
8.54264162400068,1525310.5104460001,-4462452.705588665,4279869.767839876,1.0691854028722587,0.2221342918500725,-0.19667464952391156,0.9067011817426907,-0.3751715818754308,-0.14495247747138043,-0.12699618502596383,0.5754166666666667,-0.42125000000000035,9.748563299999997,0.005726861608106389,-0.013144510929082299,-0.05677774222894053,nan,nan,nan
8.616041217000202,1525310.5884635074,-4462452.689379724,4279869.753488702,1.1403236182588758,0.2520857553771982,-0.17353628007430366,0.9069503706806792,-0.3746865883702432,-0.14546654967785572,-0.12605740398410234,-0.27458333333333335,0.14874999999999972,10.018563299999997,-0.00910843703384541,0.0038724492778624206,-0.0313613849967731,nan,nan,nan
8.697779697999977,1525310.6706047475,-4462452.671221162,4279869.740988316,1.2323396122384749,0.3196780585257571,-0.16974255532083327,0.9070487201463735,-0.3744491471372464,-0.14614251182082466,-0.12527099538384545,0.22541666666666665,0.2787499999999997,9.608563299999997,-0.0014726215563702159,0.009326603190344701,-0.028088892649283735,nan,nan,nan
8.971333716000117,1525311.019876459,-4462452.580617483,4279869.692879603,1.4868539937888685,0.5415734373022012,-0.10619178407396868,0.9044266416742462,-0.38079357475702086,-0.14868350232716993,-0.12207342030960247,-0.21458333333333335,0.3387499999999998,9.688563299999997,0.053068917568452584,0.004963280060358876,-0.01827141560681563,nan,nan,nan
9.042706262000138,1525311.1263119683,-4462452.541849288,4279869.685277931,1.573373755646953,0.5652792877627557,-0.11816727929037457,0.9044879345743453,-0.38071221135420047,-0.1489893367575206,-0.12149883301714634,-0.02458333333333334,-0.14125000000000032,9.828563299999997,0.0007090400086226956,0.0016907877128695082,-0.01827141560681563,nan,nan,nan
9.113175051000326,1525311.2369289338,-4462452.502106996,4279869.676970111,1.6751836130051698,0.6061515458852318,-0.09649742863097599,0.904420853633873,-0.38086338831179367,-0.14955869868543173,-0.12082299102447823,0.19541666666666668,0.3487499999999998,10.068563299999997,0.009435686268594343,0.007144941625351788,-0.022634738736801458,nan,nan,nan
9.188578901000255,1525308.5969203606,-4462452.483120652,4279870.551068309,-2.2009058897758234,0.17505422523108338,1.5420182277672514,0.9250844305078116,-0.3666368536575057,-0.014754672619705348,-0.09786988384989814,0.24541666666666667,0.2687499999999997,9.938563299999997,0.045433102090977395,-0.012490012459584419,-0.021543907954305,42.416385,-71.129086,12.2
9.259373552000397,1525308.4289790855,-4462452.469763048,4279870.668732816,-2.3014554243503524,0.18907905285990056,1.571566204447802,0.9250083930246252,-0.3668200149443804,-0.015551428612649135,-0.09777884789183884,0.035416666666666666,-0.15125000000000033,9.718563299999998,0.007254024703601432,0.018053249450316347,-0.009544769346843986,nan,nan,nan
9.329965212000388,1525308.2669461705,-4462452.456451024,4279870.779378215,-2.3978155246756647,0.22324445908800677,1.623761644743606,0.9256938661177604,-0.3651501826243891,-0.015675388514338202,-0.09752175712628695,0.04541666666666666,0.31874999999999976,9.768563299999997,-0.05056000676871074,0.004963280060358876,-0.010635600129340441,nan,nan,nan
9.404501302999961,1525308.0876939774,-4462452.439762059,4279870.900764883,-2.526633447874821,0.25777615955183036,1.689254322212279,0.925072229465664,-0.36678867401670673,-0.016402178645594786,-0.09715146924732936,-0.3045833333333333,0.41874999999999973,9.848563299999997,0.048705594438466754,0.010417433972841155,-0.013908092476829809,nan,nan,nan
9.474850305000473,1525307.9107364311,-4462452.421708219,4279871.019075,-2.6254182500717973,0.26158564137852364,1.7328522069374097,0.9251341667934857,-0.3667860293282159,-0.01680581369154759,-0.09650050416383454,-0.09458333333333334,-0.06125000000000025,9.968563299999998,0.0007090400086226956,0.0038724492778624206,-0.021543907954305,nan,nan,nan
9.544964733000597,1525307.7255956668,-4462452.403261571,4279871.141273275,-2.7398579598757618,0.28139062548168126,1.8080905818542417,0.9247063819037975,-0.3678821382333556,-0.01764510066945217,-0.09627819386731702,-0.24458333333333332,0.43874999999999975,10.118563299999998,0.03561562504850929,0.01696241866781989,-0.012817261694333353,nan,nan,nan
9.6154332720007,1525307.533346086,-4462452.383517033,4279871.268142865,-2.846333684557002,0.297056431837396,1.8648069689480304,0.9240862451306773,-0.36963834965641135,-0.017604527713538234,-0.09551012084747372,-0.17458333333333334,0.2287499999999998,9.978563299999998,0.053068917568452584,-0.013580843242080877,-0.017180584824319178,nan,nan,nan
9.707367609999892,1525307.335143692,-4462452.362831723,4279871.397997354,-2.9244025338075854,0.30993206757006364,1.9013170309766583,0.9243750342798476,-0.3690564275151542,-0.01735990323328186,-0.09500938704337958,0.2054166666666667,-0.021250000000000213,9.838563299999997,-0.018925914076313513,-0.010308350894591508,-0.011726430911836897,nan,nan,nan
9.780718996999894,1525307.0545486785,-4462452.33309389,4279871.580427807,-3.0493981857055417,0.35723431561317276,1.9592704740316425,0.9248915350697126,-0.36797188132754194,-0.017452456133335143,-0.09416875936487366,0.09541666666666666,0.2687499999999997,9.668563299999997,-0.02438006798879579,-0.0026725354171163156,-0.01827141560681563,nan,nan,nan
9.855343084000197,1525306.8280834176,-4462452.306563684,4279871.725934124,-3.1864032927724892,0.39009953751007814,2.003138260537086,0.925193344648213,-0.3674471504961505,-0.017441795132977864,-0.09325047426258522,-0.44458333333333333,0.28874999999999973,9.638563299999998,-0.015653421728824144,-0.008126689329598596,-0.023725569519297912,nan,nan,nan
9.925924161000694,1525306.6021629695,-4462452.278905082,4279871.867959427,-3.279374899145662,0.4019159629962433,2.0682457530634943,0.9247578301206358,-0.36873283242392635,-0.017605035969750545,-0.09246143622316952,0.04541666666666666,0.21874999999999978,10.118563299999998,0.03888811739599865,-0.007035858547102139,-0.020453077171808547,nan,nan,nan
9.995841721000033,1525306.3730357115,-4462452.25082354,4279872.012466076,-3.395735861467368,0.41181068041287067,2.1083301932256098,0.9245563387911332,-0.36932229644914494,-0.017699368938684422,-0.09210510649569367,-0.3145833333333333,0.04874999999999985,9.848563299999997,0.018162332528565993,-0.0026725354171163156,-0.009544769346843986,nan,nan,nan
10.071419521999815,1525306.116379455,-4462452.219698096,4279872.171817732,-3.514189048947608,0.4265988698609982,2.1555236192327163,0.9244504973509066,-0.36970365114555936,-0.017675709953458178,-0.09164091941753182,-0.20458333333333334,0.11874999999999969,9.858563299999997,0.010526517051090799,-0.005945027764605683,-0.010635600129340441,nan,nan,nan
10.142715654999847,1525305.865160183,-4462452.189201769,4279872.325909918,-3.6231502422809,0.4618520671082484,2.218677008364487,0.9247433287617874,-0.36910855118546404,-0.01779108956942096,-0.0910611390276606,-0.09458333333333334,0.5087499999999997,9.848563299999997,-0.017835083293817056,-0.0015817046346198599,-0.017180584824319178,nan,nan,nan
10.220990642999823,1525306.256101131,-4462452.247157249,4279871.374954285,-2.827224445664496,-0.06335783622805136,1.1315734319580688,0.9031697041891313,-0.41325664177607035,-0.03470968595877352,-0.11089937655492406,-0.24458333333333332,0.6887499999999998,9.838563299999997,0.08033968713086398,-0.011399181677087962,-0.017180584824319178,42.416396,-71.129111,12.1
10.589633004000461,1525305.1990700185,-4462452.270845218,4279871.798022332,-3.1825979765990455,-0.2815215960911306,1.0429767623411537,0.9022873904766118,-0.41594454989372265,-0.0354783941875637,-0.10774451495659844,-0.16458333333333336,-0.14125000000000032,9.888563299999998,0.015980670963573078,-0.0046360308256099365,-0.01587158788532343,nan,nan,nan
10.664378670000588,1525304.9614832362,-4462452.291861322,4279871.875882462,-3.250415941445307,-0.3015745285933332,1.0558261993350813,0.9019952033850591,-0.4166318101845162,-0.03522307485662379,-0.10761934476249921,-0.02458333333333334,0.41874999999999973,9.928563299999997,0.019253163311062447,-0.009217520112095052,0.0013635384781205753,nan,nan,nan
10.744594626000435,1525304.7321370207,-4462452.31314013,4279871.95038054,-3.351682545662136,-0.33760239926662666,1.0420688418793862,0.9018585728475199,-0.4169976757189085,-0.03468808251715169,-0.10752111659805123,-0.5945833333333334,0.08874999999999966,9.788563299999998,0.009435686268594343,-0.015762504807073786,0.004636030825609941,nan,nan,nan
10.81766285699996,1525304.4542352722,-4462452.34113213,4279872.0367827425,-3.3782572317976407,-0.4011982181445775,1.0257432763988705,0.90225134233746,-0.4162661650512986,-0.03411795319633308,-0.107242533120844,0.4454166666666667,-0.2512500000000002,10.148563299999998,-0.021107575641306425,-0.013580843242080877,-0.0019089538693687937,nan,nan,nan
10.889322558000458,1525304.2119300864,-4462452.369908035,4279872.110354084,-3.4937080221628434,-0.4014380732117494,1.0516589206725977,0.9019761150652408,-0.4167438326324533,-0.03481416266288012,-0.1074785580916373,-0.6145833333333334,0.8487499999999997,9.748563299999997,0.017071501746069535,0.019144080232812805,-0.0008181230868723362,nan,nan,nan
10.966714206000688,1525303.9415622766,-4462452.400974149,4279872.191738881,-3.63822744033585,-0.41834564393491214,1.0583226742039638,0.9006347500023519,-0.4194833321218905,-0.03600264266074793,-0.10767818459792695,-0.9345833333333333,0.5587499999999997,9.688563299999997,0.08143051791336044,0.023507403362798628,-0.0019089538693687937,nan,nan,nan
11.038202622999961,1525303.682644288,-4462452.430746123,4279872.267055442,-3.732003800877472,-0.4681592398659629,1.0644521965886937,0.90023220663909,-0.4204016883517531,-0.036258329798732544,-0.10737657397059301,-0.5245833333333334,0.2287499999999998,10.128563299999998,0.02907064035353055,0.0005999569303730525,-0.00845393856434753,nan,nan,nan
11.116478070000085,1525303.3908613326,-4462452.467348682,4279872.350278564,-3.7708954379655566,-0.4972676394961358,1.064915414137893,0.9007746730726403,-0.4192986501928631,-0.03628734465096193,-0.10713010534975109,0.34541666666666665,0.2587499999999997,9.958563299999998,-0.030925052683774528,0.0005999569303730525,-0.00845393856434753,nan,nan,nan
11.495528946999912,1525303.595366822,-4462451.884777048,4279872.509846812,-1.876150289720024,0.06342758732797216,1.0120633781283472,0.892709514588309,-0.4141959688299568,-0.10774641905415287,-0.1410749152268798,-0.24058333333333332,0.3207499999999997,9.896563299999995,0.023616486441048273,0.032234049622770274,-0.01827141560681563,42.416411,-71.12914,12.0
11.567775459000586,1525303.4488981217,-4462451.879825336,4279872.588857331,-1.893907905124704,0.06275164886442242,1.0184396089439214,0.8932556023196142,-0.4131279522092007,-0.10822868627009752,-0.1403790442090613,-0.8645833333333334,0.5787499999999998,9.758563299999997,-0.026561729553788705,0.006054110842855332,-0.025907231084290827,nan,nan,nan
11.641148303000591,1525303.3097695012,-4462451.8752155285,4279872.663673059,-1.8594654191621856,0.06789218460225449,1.0278483314411402,0.8930840418594056,-0.41363943926112595,-0.10900689616974081,-0.13935855053778828,-0.19458333333333333,0.5287499999999997,9.948563299999998,0.0203439940935589,0.006054110842855332,-0.0313613849967731,nan,nan,nan
11.72828203500012,1525303.1669389976,-4462451.870000549,4279872.742624834,-1.8158650201000792,0.09029950740909537,1.0300981451964124,0.8926303982692343,-0.4143268778890722,-0.11063784200718128,-0.13893695986720483,-0.02458333333333334,0.5887499999999998,9.758563299999997,0.027979809571034096,0.032234049622770274,-0.023725569519297912,nan,nan,nan
11.801308975000211,1525303.0157045196,-4462451.862479947,4279872.828416649,-1.7734606753004074,0.0930499216482274,1.0346812328205988,0.8934591602816405,-0.41234346821772,-0.11195234750988942,-0.1384567281527981,-0.19458333333333333,0.4787499999999998,9.938563299999997,-0.04510585285622845,0.02787072649278445,-0.0313613849967731,nan,nan,nan
11.87749429500036,1525302.880886422,-4462451.855406311,4279872.907072893,-1.742533014531688,0.07803825945986026,1.0314666929132228,0.894593139115196,-0.4099332439789266,-0.1129312609725084,-0.1374932063079399,-0.38458333333333333,0.2387499999999998,10.008563299999997,-0.06255914537617176,0.018053249450316347,-0.04445135438673058,nan,nan,nan
11.948826926000038,1525302.7560544899,-4462451.849815791,4279872.980965313,-1.760524796871661,0.07016794238268426,1.0596529254015477,0.8948101772096438,-0.4096565680269399,-0.11387141166564739,-0.13612327206048486,-1.0245833333333334,0.6787499999999997,10.018563299999997,-0.0014726215563702159,0.008235772407848244,-0.04663301595172349,nan,nan,nan
12.022578380000596,1525302.6262832775,-4462451.844643595,4279873.059074093,-1.7032418993621066,0.05517439380488537,1.0517801078317057,0.8942204735597489,-0.4117324647507568,-0.11346036864386433,-0.13406292343817075,-0.05458333333333334,0.07874999999999965,10.088563299999997,0.06179556382842423,-0.03866995123949936,-0.03681553890925539,nan,nan,nan
12.094176376000178,1525302.504865393,-4462451.840710414,4279873.134051649,-1.645659754814719,0.05134649250709444,1.0650897200635099,0.8942556471641611,-0.4123658910129475,-0.11296314891448236,-0.13228959516218708,0.025416666666666657,0.43874999999999975,10.178563299999997,0.019253163311062447,-0.03539745889200999,-0.03681553890925539,nan,nan,nan
12.17067039199992,1525302.3783660636,-4462451.836763488,4279873.215923455,-1.5694680776042431,0.0970281342214574,1.0881865414318828,0.8935981562664633,-0.41425896421124697,-0.11329532022858411,-0.13052209260830222,0.42541666666666667,0.9187499999999997,9.848563299999997,0.0574322406984384,-0.015762504807073786,-0.03681553890925539,nan,nan,nan
12.242491087000417,1525302.2657031883,-4462451.82979841,4279873.294037961,-1.5020341301156654,0.11353169557805648,1.0803851600931194,0.8936982726652729,-0.4149689200992683,-0.11259993095056912,-0.12816180746785383,0.30541666666666667,0.42874999999999974,9.828563299999997,0.02143482487605536,-0.04739659749947101,-0.0488146775167164,nan,nan,nan
12.321018399999957,1525302.1477690695,-4462451.820884325,4279873.378865776,-1.480827696816835,0.10910582516793493,1.1208873109894046,0.8946044273753514,-0.4134608601772049,-0.11280243161593274,-0.1265252844305208,-0.44458333333333333,0.8387499999999997,10.218563299999998,-0.03856086816124972,-0.010308350894591508,-0.04663301595172349,nan,nan,nan
12.39378780900006,1525302.0402647445,-4462451.812963519,4279873.460239344,-1.4844484089705283,0.1300460386413131,1.1388796184213967,0.894240174989143,-0.41453637000411664,-0.1134705013474393,-0.12497421037919625,-0.6045833333333334,0.8587499999999997,9.708563299999998,0.0377972866135022,-0.0037633661996127714,-0.041178862039241204,nan,nan,nan
12.47215770999992,1525301.9238005157,-4462451.802760597,4279873.549591548,-1.4321145020256396,0.12631149483294196,1.1499680627347282,0.8931556768859654,-0.41688190761145844,-0.11496537804000861,-0.12355312364108031,-0.02458333333333334,0.4987499999999997,10.098563299999997,0.07379470243588525,0.01478075710282698,-0.037906369691751846,nan,nan,nan
12.548775637999825,1525300.9729497512,-4462451.258661305,4279874.036554632,-2.4900825972251943,0.7321158900292503,1.9187588927499553,0.9122321203650076,-0.38473360013409075,-0.08609379747657227,-0.11135741598579259,0.29541666666666666,0.5087499999999997,9.658563299999997,-0.03310671424876743,0.007144941625351788,-0.040088031256744754,42.41643,-71.129168,12.0
12.62145292600053,1525300.7787636702,-4462451.201568132,4279874.186186724,-2.563275986637146,0.7602736134507699,1.9856591256661895,0.9117705402488201,-0.38625875360302325,-0.08673763459024111,-0.10934002241562468,-0.9345833333333333,0.7887499999999997,9.918563299999997,0.04652393287347385,-0.008126689329598596,-0.0488146775167164,nan,nan,nan
12.708104176000234,1525300.5924725768,-4462451.146313761,4279874.330498383,-2.5521163956337736,0.8041657162121725,2.035704806564917,0.9115002875355569,-0.3869676098464603,-0.08788039230915153,-0.10816807272319341,0.19541666666666668,0.7187499999999998,9.898563299999998,0.02688897878853764,0.01478075710282698,-0.038997200474248296,nan,nan,nan
12.780467016999864,1525300.372388122,-4462451.076965681,4279874.506049539,-2.598272213598245,0.8659890449112985,2.11230527001509,0.9116842056124762,-0.38604684661821825,-0.09029351887808784,-0.10792044504280185,-0.46458333333333335,1.0487499999999996,9.788563299999998,-0.014562590946327687,0.05077817292521003,-0.029179723431780193,nan,nan,nan
12.852329961000578,1525300.1854670574,-4462451.014665975,4279874.658009887,-2.635714945654652,0.9078643938929195,2.1609811600131232,0.9115381101086415,-0.3859029177812584,-0.0925460670441832,-0.10776102216885773,-0.5145833333333334,0.7887499999999997,9.738563299999997,0.0050723631386085195,0.05623232683769231,-0.028088892649283735,nan,nan,nan
12.925774551999893,1525299.9917786717,-4462450.947950571,4279874.8168119425,-2.6824031447621905,0.9330648311505533,2.206186521519235,0.9122785370822324,-0.38406404705470265,-0.09389032126499278,-0.10689848768138747,-0.7245833333333334,0.5987499999999998,9.828563299999997,-0.047287514421221366,0.02787072649278445,-0.04226969282173766,nan,nan,nan
12.997066976000497,1525299.8003884107,-4462450.881376118,4279874.974224006,-2.7381035394566524,0.9174935388315066,2.2650612003602513,0.9121827950670168,-0.38469276991197077,-0.09439286808214974,-0.10499527690878528,-1.0545833333333334,0.3487499999999998,10.318563299999997,0.023616486441048273,-0.009217520112095052,-0.052087169864205765,nan,nan,nan
13.274171400000341,1525299.0419410027,-4462450.627232845,4279875.601639942,-2.774964519996755,0.9724924983953191,2.485679720444149,0.9118685506079952,-0.38710055822793754,-0.09468343943432311,-0.09840706826913685,-0.3145833333333333,0.5487499999999997,10.178563299999997,0.02143482487605536,-0.0179441663720667,-0.04226969282173766,nan,nan,nan
13.959435622000456,1525296.2586488717,-4462450.1826048875,4279876.695341724,-4.2909269762724636,0.6848816101311271,2.4841303311524023,0.9081764528111401,-0.4067217080664106,-0.06936862758778009,-0.07057603566544843,-0.4145833333333333,0.6707499999999997,9.913563299999996,0.014017175555079458,0.013253594007331943,-0.04008803125674475,42.416463,-71.129218,11.9
14.030835625000691,1525295.8829907016,-4462450.122645495,4279876.912820105,-4.417394662778921,0.7238482846287787,2.582930192970139,0.9065038793642514,-0.41059539478466955,-0.06915499742789466,-0.06985503107635312,-0.8345833333333333,1.5087499999999998,9.938563299999997,0.09670214886831081,-0.01467167402457733,-0.004090615434361705,nan,nan,nan
14.1007523520002,1525295.5760362833,-4462450.072346972,4279877.092301881,-4.5301155154528745,0.7293884232424592,2.672630115724228,0.9061064042368312,-0.4112244452794744,-0.07023545701286582,-0.0702326202026441,-1.0745833333333334,1.4887499999999998,10.268563299999997,0.022525655658551816,0.032234049622770274,-0.0008181230868723362,nan,nan,nan
14.178546984000604,1525295.2233493994,-4462450.015561284,4279877.300376396,-4.650284663025058,0.7471732699649231,2.73008561020492,0.9056000180219318,-0.4118059536162161,-0.0721850064382471,-0.07137078763172296,-0.9545833333333333,1.1787499999999997,9.808563299999998,0.0203439940935589,0.05732315762018877,0.00790852317309931,nan,nan,nan
14.249667664999834,1525294.890989095,-4462449.962160094,4279877.495498233,-4.752337669784245,0.7518094371783188,2.772280377214386,0.9059776105324661,-0.4105652523527115,-0.07347947135476907,-0.07239827774614244,-0.9045833333333333,0.9687499999999998,9.848563299999997,-0.03528837581376035,0.04641484979522421,0.00790852317309931,nan,nan,nan
14.3285183400003,1525294.51670918,-4462449.902949829,4279877.713834751,-4.748977001338066,0.7150637879011018,2.8245396600723924,0.9038471218899855,-0.415115011091971,-0.07391788893943235,-0.07263645137798588,0.3954166666666667,0.5487499999999997,10.568563299999997,0.12724541077821158,0.008235772407848244,0.013362677085581587,nan,nan,nan
14.400488530000075,1525294.176248926,-4462449.851685989,4279877.916329623,-4.798194884362239,0.6467134178419043,2.8784622227364274,0.9036654831490711,-0.4153928385718012,-0.07380311952384966,-0.07342059883651293,-0.4245833333333333,0.45874999999999977,10.838563299999997,0.007254024703601432,0.006054110842855332,0.02208932334555324,nan,nan,nan
14.479179461000058,1525293.7999339767,-4462449.800965263,4279878.142082931,-4.825038430020226,0.6325785287327027,2.9405673700523067,0.9024124069130979,-0.4182875344271092,-0.07251363034517429,-0.07368283628572583,0.055416666666666656,0.9687499999999998,10.358563299999997,0.0770671947833746,-0.029943304979527713,0.02754347725803552,nan,nan,nan
14.550515134000307,1525293.4525968449,-4462449.755428214,4279878.353763781,-4.8873863941075015,0.6512866470527436,2.965447734164043,0.9021563180462238,-0.419332678176478,-0.0699806966801381,-0.07332656729679778,-0.3145833333333333,1.0087499999999998,9.638563299999998,0.024707317223544727,-0.06921321314940014,0.02318015412804969,nan,nan,nan
14.934559027000432,1525291.6237615913,-4462449.511720046,4279879.4634193145,-5.272046277036287,0.5488379060769795,3.194668032388082,0.9118565008143533,-0.39943209833079324,-0.05205272127486452,-0.0791342878295503,-0.5425833333333332,0.9027499999999996,10.176563299999998,-0.12691816154346267,-0.06921321314940014,0.056995908385439824,nan,nan,nan
15.009417147000022,1525293.0105195143,-4462449.666715587,4279878.3235548,-2.6598705071332267,-0.13055765815560816,1.5704599356612574,0.8826832669013082,-0.4424102682557866,-0.11094730308223272,-0.11328769293176555,0.9254166666666667,-0.32125000000000026,9.668563299999997,-0.036379206596256805,-0.07466736706188241,0.08644833951284414,42.416483,-71.129253,11.8
15.080605867000486,1525292.807237089,-4462449.676693545,4279878.443578276,-2.6815108692181755,-0.21379066710732408,1.4902884488068493,0.8808639540327017,-0.44549254176960335,-0.1093389738976816,-0.11687634087906935,-0.9445833333333333,-0.3512500000000003,9.858563299999997,0.0770671947833746,0.0005999569303730525,0.11590077064024845,nan,nan,nan
15.45420503600053,1525291.8055775708,-4462449.756553544,4279879.00026504,-2.613293814674707,-0.3999176064384128,1.4399587018977755,0.8718792242021384,-0.46360062699185006,-0.08201418399534387,-0.13481376501590833,-0.40758333333333335,0.7457499999999999,10.079563299999998,0.07924885634836752,-0.0921206595818257,0.16607898663508544,nan,nan,nan
15.743421119000232,1525291.0760270308,-4462449.868198129,4279879.402256827,-2.7467022267317853,-0.8093177878649694,0.953178044938809,0.8692136326777156,-0.4611530086757347,-0.06903772053193906,-0.16443648335155667,-0.9045833333333333,-0.6912500000000004,9.748563299999997,-0.036379206596256805,0.021325741797805713,0.2293471720198799,nan,nan,nan
15.81535393500053,1525290.8510019209,-4462449.934501939,4279879.480346469,-2.8341282741871154,-0.9197556617005088,0.8197833093027256,0.8683228956145262,-0.4602916306170169,-0.064123579805844,-0.17330646498374472,-1.5145833333333334,-0.44125000000000036,9.548563299999998,-0.04292419129123555,0.0005999569303730525,0.2457096337573267,nan,nan,nan
15.89163233399995,1525290.634678989,-4462450.004704916,4279879.542918771,-2.9310444874690105,-1.0306262246218754,0.7203964909085918,0.8659835023950733,-0.4626281695999951,-0.058441765920757026,-0.18064415524707608,-1.7345833333333334,-0.18125000000000036,9.758563299999997,0.04325144052598448,-0.04739659749947101,0.2500729568873125,nan,nan,nan
15.9638615140002,1525290.4239706413,-4462450.078795074,4279879.594706983,-2.9668507376833113,-1.1404548982176586,0.6366507467065274,0.8637039815326943,-0.4646132325116394,-0.052985886640238886,-0.18799593834269474,-1.0045833333333334,-0.2412500000000002,10.108563299999997,0.0377972866135022,-0.04303327436948518,0.2620720954947735,nan,nan,nan
16.042347620000328,1525289.137817628,-4462449.223079617,4279880.05010213,-4.487454671611193,-0.4595846710174605,1.5027081700585763,0.8832522100683982,-0.4299235367064068,-0.0072732361932900565,-0.187025096142651,-1.2245833333333334,-1.2212500000000002,10.318563299999997,0.05852307148093486,-0.06484989001941431,0.27734372644972394,42.416505,-71.129296,11.7
16.114006571000573,1525288.791783864,-4462449.25851882,4279880.165978011,-4.622062591927428,-0.5843921374646133,1.3900800940580154,0.8807832999165611,-0.4309332626757375,-0.0013796528038976027,-0.19625340461409516,-1.5345833333333334,-1.0112500000000002,9.758563299999997,0.0203439940935589,-0.03648828967450645,0.28934286505718493,nan,nan,nan
16.187246296000012,1525288.4544507882,-4462449.301169648,4279880.267430551,-4.6677283925136,-0.7021520060210926,1.265574692828875,0.8785250562975668,-0.43145641316551536,0.004519100112800487,-0.20498455377569721,-0.5345833333333333,-1.5312500000000002,9.798563299999998,0.007254024703601432,-0.04194244358698873,0.2926153574046743,nan,nan,nan
16.258606009000687,1525288.1199217285,-4462449.351491824,4279880.358132382,-4.761748712020403,-0.745606669638514,1.1751559163783216,0.8767784979468529,-0.43022945730289774,0.01008315890923755,-0.2146168913903833,-0.7245833333333334,-0.3812500000000003,9.198563299999998,-0.03965169894374618,-0.013580843242080877,0.31334114227210697,nan,nan,nan
16.335489510000116,1525287.7557812,-4462449.40850987,4279880.447998925,-4.857830422987713,-0.8064352104173741,1.0820331974131123,0.8737188499970987,-0.43035096648094057,0.014804532853141084,-0.2262614487101457,-0.7345833333333334,-0.4812500000000002,9.378563299999998,0.013799009398580166,0.021325741797805713,0.337339419487029,nan,nan,nan
16.40774393799984,1525287.404658378,-4462449.466798814,4279880.526208026,-4.9652135829777855,-0.9104781972463173,1.0101916183599648,0.8700916621177576,-0.4319178594969971,0.020304816127099928,-0.2365907376874267,-1.1645833333333335,-0.5312500000000002,9.968563299999998,0.05088725600345967,-0.021216658719556067,0.337339419487029,nan,nan,nan
16.486572489000537,1525287.012819,-4462449.538650951,4279880.605929241,-5.125224646188528,-1.027026477748675,0.9127826963429194,0.866555695128546,-0.43235142824355005,0.027562143253542257,-0.2477777200477517,-1.7145833333333333,-0.43125000000000036,9.758563299999997,0.010526517051090799,-0.04194244358698873,0.3471568965294971,nan,nan,nan
16.55777562500043,1525286.6464651695,-4462449.6120633595,4279880.671175442,-5.224729594769585,-1.160878122017772,0.8607460433195881,0.8626269817883114,-0.43385256533418043,0.0336145137742741,-0.25790833035054195,-1.1645833333333335,-0.4912500000000002,10.488563299999997,0.04979642522096321,-0.0375791204570029,0.34497523496450416,nan,nan,nan
16.63651255500008,1525286.2354066584,-4462449.703396092,4279880.738895116,-5.361476261582169,-1.2751428175615205,0.7888367166398657,0.858467754357435,-0.4347255458475196,0.039739925349703664,-0.26919798180154536,-1.3245833333333334,-0.19125000000000036,9.998563299999997,0.034524794266012834,-0.019034997154563152,0.34170274261701483,nan,nan,nan
16.718382654999914,1525285.8500177935,-4462449.795054773,4279880.795597576,-5.450575274945225,-1.3669961085413265,0.7183606044001739,0.856177300953594,-0.43213047350449685,0.04591162894537918,-0.2794920501283116,-0.8345833333333333,-0.3412500000000003,9.908563299999997,-0.06910413007115049,-0.005945027764605683,0.34061191183451833,nan,nan,nan
16.794681053000204,1525285.379478193,-4462449.913065399,4279880.857612518,-5.629726731823934,-1.4650245543607543,0.5888463339892545,0.8521695677516742,-0.4309232442635483,0.05240888968754114,-0.2921737397333454,-1.6445833333333335,-0.2412500000000002,9.338563299999997,-0.012380929381334775,0.0016907877128695082,0.3438844041820077,nan,nan,nan
16.866522915000132,1525284.9747834965,-4462450.018379155,4279880.899941924,-5.736757005511946,-1.5782907827547872,0.45659576493665754,0.8476596715568421,-0.43203454264092706,0.05918293127329707,-0.30218639344589576,-1.4845833333333334,-0.9612500000000004,9.558563299999998,0.03997894817849511,-0.05612324375944266,0.3537018812244758,nan,nan,nan
16.939195036000456,1525284.5583852918,-4462450.132938207,4279880.933083585,-5.843380026956413,-1.693665118634332,0.28996877491513906,0.8434325860809789,-0.43191854996267887,0.06594181599549796,-0.3126012098422698,-1.6245833333333335,-1.2312500000000004,9.298563299999998,0.008344855486097888,-0.039760782021995816,0.3591560351369581,nan,nan,nan
17.011319095000545,1525284.1371098708,-4462450.255042106,4279880.953988733,-5.903406547705271,-1.8595005315765192,0.1287079354766364,0.8399138990897823,-0.4302403954836295,0.07237374118994108,-0.3228000717980198,-1.4345833333333335,-1.8212500000000003,9.988563299999997,-0.03419754503126389,-0.02012582793705961,0.34933855809449,nan,nan,nan
17.09465730500051,1525285.2267917022,-4462449.330118824,4279881.231777458,-3.5933003669061265,-0.9214995269742148,0.6891489419088965,0.7945825278603079,-0.3944815558935423,0.04881300716722629,-0.4589555527139545,-1.2645833333333334,-1.3112500000000005,9.978563299999998,0.06615888695841006,-0.05394158219444974,0.35479271200697227,42.41652,-71.129341,11.7
17.166019518000212,1525284.9515264353,-4462449.400710422,4279881.284569807,-3.52675308524987,-0.9897757354414329,0.6200139477851901,0.7871026756439172,-0.39580104521846954,0.05409135943274082,-0.46998408057041435,-0.9945833333333334,-1.2112500000000004,10.018563299999997,0.0552505791334455,-0.021216658719556067,0.37115517374441914,nan,nan,nan
17.238476606000404,1525284.696021977,-4462449.472417203,4279881.32948827,-3.483487531630307,-1.0323580096447051,0.5903666198167699,0.7794056806755665,-0.39724076121184776,0.0583941202049853,-0.48095393734194614,-0.7245833333333334,-0.5712500000000003,10.078563299999997,0.07597636400087815,-0.0037633661996127714,0.38315431235188013,nan,nan,nan
17.310593457000323,1525284.4446414153,-4462449.5469157435,4279881.372091176,-3.453953123281794,-1.05342334986774,0.5812187066960809,0.7715445694146925,-0.3983849617002196,0.06327809794295633,-0.4919393078168065,-0.4945833333333333,-0.1212500000000003,10.018563299999997,0.06397722539341714,-0.012490012459584419,0.3940626201768447,nan,nan,nan
17.388737784000114,1525284.1745415903,-4462449.62929366,4279881.417542595,-3.457788996624642,-1.1320265956881719,0.4949293667319252,0.7645925405479039,-0.39450541596483907,0.06870054478820961,-0.5050187713496005,-1.7045833333333333,-0.3712500000000003,9.708563299999998,-0.052741668333703653,0.06386814231516749,0.40715258956680217,nan,nan,nan
17.773948841000674,1525282.8773294792,-4462450.0539808255,4279881.603218578,-3.2248003740718967,-1.4165452605476108,0.11439315138654571,0.7196631994197167,-0.39944145450055163,0.09026217786626255,-0.5606996911280099,-1.2205833333333334,-0.8182500000000003,9.789563299999998,0.0770671947833746,-0.0004908738521234033,0.3918809586118518,nan,nan,nan
17.84895920500003,1525282.604107358,-4462450.173998022,4279881.61291057,-3.220656623402451,-1.4957188729395539,0.011212669063121294,0.7095072962902546,-0.3995702749600759,0.09620570716380497,-0.572439913305388,-1.7545833333333334,0.04874999999999985,9.608563299999997,0.04434227130848094,-0.013580843242080877,0.38969929704685885,nan,nan,nan
17.920575200000712,1525282.373522447,-4462450.281084944,4279881.613713347,-3.159563394985142,-1.59121529820752,-0.0522181072672967,0.7005584099751453,-0.4004152686974449,0.10056930465879554,-0.582040670678812,-1.5745833333333334,-0.43125000000000036,10.358563299999997,0.07270387165338879,-0.016853335589570244,0.37988182000439075,nan,nan,nan
17.993808883000384,1525282.141282275,-4462450.398045444,4279881.609875114,-3.187179159991638,-1.7150247301062076,-0.21457704332292626,0.6934207390340552,-0.397265293691138,0.10666993403609029,-0.5915821927977888,-3.004583333333333,0.17874999999999974,9.328563299999997,-0.052741668333703653,0.018053249450316347,0.37006434296192264,nan,nan,nan
18.065540581999812,1525281.914002515,-4462450.520344941,4279881.594573489,-3.1352197584980654,-1.7487149616058186,-0.2591154157974697,0.6846559839369017,-0.3986789577069538,0.10981016429921947,-0.6002024664347971,-0.8345833333333333,-0.1212500000000003,9.908563299999997,0.09888381043330373,-0.01467167402457733,0.3438844041820077,nan,nan,nan
18.14741872400009,1525280.7530996709,-4462450.137591717,4279881.817551257,-4.334266897359063,-1.3815944780438998,0.33429357537985394,0.7076663101393286,-0.36242580547876657,0.12362398921901435,-0.5937786109849168,-0.7645833333333333,-0.33125000000000027,9.888563299999998,0.018162332528565993,-0.005945027764605683,0.3340669271395396,42.416528,-71.129396,11.6
18.51750457000071,1525279.1251459122,-4462450.656519595,4279881.943112164,-4.349233949247146,-1.764564678563075,0.2734517873524458,0.6611952832909215,-0.3581764781422232,0.14454853177070218,-0.6431454970526898,-1.3945833333333335,-0.03125000000000022,10.338563299999997,0.040088031256744754,-0.0007090400086226958,0.3765002445786517,nan,nan,nan
18.59386300799997,1525278.7932929206,-4462450.791158493,4279881.96397694,-4.308081735647561,-1.7426554189845667,0.2347274340813244,0.653003596389346,-0.35541847029833545,0.1477029333309471,-0.652263641571068,-0.5445833333333333,-0.44125000000000036,9.388563299999998,0.010526517051090799,0.04641484979522421,0.33624858870453256,nan,nan,nan
18.665684162000616,1525278.4849310364,-4462450.915893477,4279881.980778152,-4.280988806172303,-1.7907227931792271,0.16539366266212913,0.644943638192606,-0.35380803492228513,0.15102025313422882,-0.6603487424682015,-1.6245833333333335,-0.29125000000000023,9.648563299999998,0.023616486441048273,0.015871587885323436,0.3340669271395396,nan,nan,nan
18.75389430999985,1525278.1491567437,-4462451.056346701,4279881.9937506085,-4.254800710492894,-1.8391101728205252,0.14394045228586927,0.6367595942745785,-0.3497551070874165,0.15609051385689057,-0.669211727487035,-1.1445833333333335,-0.021250000000000213,10.088563299999997,-0.044015022073731994,0.03332488040526673,0.34497523496450416,nan,nan,nan
18.826148197000293,1525277.7999418096,-4462451.207292605,4279882.005564595,-4.250747136297163,-1.931677384001083,0.10702143234803219,0.6267551001215419,-0.3493621082958182,0.15941414196282463,-0.6780201277674128,-1.6845833333333335,0.2787499999999997,10.218563299999998,0.05852307148093486,-0.008126689329598596,0.3297036040095538,nan,nan,nan
18.902159023000422,1525277.4754426936,-4462451.354755529,4279882.013734537,-4.233950330034087,-2.054098424422702,0.028558187465608398,0.6182161685044222,-0.3478688220747288,0.16222611648923593,-0.6859145277027007,-2.404583333333333,0.15874999999999972,10.168563299999997,0.03670645583100574,0.01696241866781989,0.31334114227210697,nan,nan,nan
18.97422675100006,1525277.171370665,-4462451.502275889,4279882.015785517,-4.2186397390404675,-2.17967258952695,-0.05533589418812035,0.611097812639838,-0.3443419239468387,0.16512193945320167,-0.6933417977212638,-2.614583333333333,0.2487499999999997,10.158563299999997,-0.013471760163831233,0.05732315762018877,0.3078869883596247,nan,nan,nan
19.04775783900004,1525276.861747955,-4462451.662250709,4279882.011724196,-4.199483011081208,-2.288383672646366,-0.11401823658932753,0.6028314634090531,-0.3442958918292884,0.16744931665208782,-0.7000109231312531,-2.2045833333333333,0.2687499999999997,10.248563299999997,0.06288639461092069,-0.012490012459584419,0.28934286505718493,nan,nan,nan
19.118648778000534,1525276.562406324,-4462451.82536805,4279882.003596909,-4.152295028217814,-2.2026038704878883,-0.019658420447187186,0.5946538003122467,-0.3470331286677363,0.17225255073450138,-0.7044742186222924,1.2054166666666666,-0.22125000000000017,10.118563299999998,0.051978086785956126,-0.13029973696920166,0.2697079109722487,nan,nan,nan
19.201287515999866,1525276.4518662477,-4462452.059895414,4279881.183369528,-3.648489753691166,-2.646256712725516,-0.9843264329515466,0.5850928338444158,-0.3843781916337241,0.1822631862968514,-0.6904345827505781,-0.5145833333333334,-0.19125000000000036,10.898563299999998,-0.023289237206299333,-0.10193813662429381,0.2522546184523054,42.416521,-71.129453,11.5
19.273532945000625,1525276.167594464,-4462452.266078291,4279881.106675813,-3.5802226164998263,-2.7401387524404934,-1.0651993831689661,0.5773797438855467,-0.38482291916818956,0.18600023246509872,-0.6956636157750451,-1.2945833333333334,0.058749999999999636,10.228563299999998,0.041069778960991565,-0.04848742828196746,0.2500729568873125,nan,nan,nan
19.3457626670006,1525275.9088363699,-4462452.46411991,4279881.02968927,-3.566063232875491,-2.901711758854316,-1.2428406855666758,0.57111088602529,-0.38416708205005823,0.1888567941287548,-0.7004149632901255,-2.9745833333333334,0.7687499999999998,9.838563299999997,0.02579814800604118,-0.01467167402457733,0.23043800280237633,nan,nan,nan
19.417743189000248,1525275.6521406542,-4462452.672993653,4279880.940225944,-3.548782271326142,-2.9837897966600093,-1.3260795200955793,0.5655663345333849,-0.3840306262963061,0.19181400218751593,-0.7041751120499026,-1.2545833333333334,0.7187499999999998,9.908563299999997,0.019253163311062447,-0.03321579732701708,0.19989474089247558,nan,nan,nan
19.496049885000502,1525275.3744382777,-4462452.906483751,4279880.836456424,-3.5584236341644457,-3.0905467915815907,-1.4540077960773257,0.5599817758748965,-0.38514676094665684,0.19388537694191452,-0.7074537754405827,-1.7045833333333333,1.0787499999999997,9.648563299999998,0.04979642522096321,-0.0452149359344781,0.16280649428759605,nan,nan,nan
19.879454803000044,1525274.0452159455,-4462454.060934215,4279880.293322769,-3.2584426207944013,-3.612088971061846,-1.965260032187181,0.5435288308150186,-0.3782832053492613,0.1952793522604469,-0.7234253256287303,-1.5445833333333332,0.3167499999999997,10.143563299999997,0.024707317223544727,0.037688203535252554,0.12026409377023428,nan,nan,nan
19.955804741000065,1525273.7643394917,-4462454.372294843,4279880.123918138,-3.253052645814309,-3.779102016626008,-2.0935299627226955,0.5410826452870843,-0.37549180925947573,0.19772851989902596,-0.7260433217952384,-2.0145833333333334,1.3387499999999997,10.168563299999997,-0.04292419129123555,0.02787072649278445,0.10826495516277326,nan,nan,nan
20.02738494500045,1525273.5316101492,-4462454.642658721,4279879.974143172,-3.2359599354473683,-3.888954776782367,-2.140696014175446,0.538241454335691,-0.3758918280265329,0.19687410883034487,-0.7281772148910427,-1.1645833333333335,1.1187499999999997,10.478563299999998,0.0650680561759136,0.011508264755337613,0.07881252403536895,nan,nan,nan
20.100176020000617,1525273.2958153596,-4462454.9260353055,4279879.818157011,-3.2212879076882026,-3.998692175279928,-2.232088485421282,0.5367898311264514,-0.37546852955807825,0.19843943052252025,-0.7290417364468065,-1.5945833333333335,1.1287499999999997,10.058563299999998,-0.017835083293817056,-0.013580843242080877,0.060268400732929196,nan,nan,nan
20.172476614000516,1525273.0638704796,-4462455.213956225,4279879.65743822,-3.2218133863786393,-4.0775924614713945,-2.3076679983914974,0.5348946170878257,-0.3767525364289022,0.1997311636234319,-0.7294194525369019,-1.1345833333333335,1.1987499999999998,9.838563299999997,0.014889840181076624,-0.051759920629456835,0.05045092369046109,nan,nan,nan
20.255101227000523,1525272.433450326,-4462455.051378009,4279879.400305334,-3.6398978134761326,-3.9166613445153002,-2.2833122859542296,0.5346663979212123,-0.36199835608543324,0.20976891119269978,-0.7342247868188431,-1.6645833333333335,1.0787499999999997,10.128563299999998,-0.028743391118781613,-0.02012582793705961,0.05808673916793628,42.4165,-71.129511,11.4
20.3274111540004,1525272.1505339253,-4462455.355806261,4279879.222831534,-3.6662648333252186,-4.072154943114688,-2.4299650183643933,0.5330086613891665,-0.3631121689977266,0.21093483067883614,-0.7345459940487952,-2.364583333333333,1.5087499999999998,9.838563299999997,0.010526517051090799,-0.04303327436948518,0.04063344664799299,nan,nan,nan
20.39978087000054,1525271.8844098432,-4462455.6513927905,4279879.046447056,-3.679880318886108,-4.140907011955227,-2.4468528036969266,0.5322942869702538,-0.3619160796396645,0.21087259473693185,-0.7356713211093292,-0.4345833333333333,1.1487499999999997,10.228563299999998,-0.0025634523388666716,0.032234049622770274,0.037360954300503624,nan,nan,nan
20.471235246000106,1525271.6223420696,-4462455.946293218,4279878.872191045,-3.6903796411955643,-4.219586078247508,-2.4975634007528846,0.5305420023778994,-0.3628626493868126,0.2098007267664936,-0.7367764498121735,-0.9245833333333333,1.1287499999999997,10.038563299999998,0.06070473304592777,-0.0026725354171163156,0.036270123518007166,nan,nan,nan
20.5501822920005,1525271.3308978619,-4462456.279530999,4279878.674948361,-3.706117068769296,-4.333533324976752,-2.5664237197222732,0.5296629155439666,-0.3622401014350757,0.2103257177043382,-0.7375651820948933,-1.2445833333333334,1.3287499999999997,10.148563299999998,-0.005835944686356041,0.007144941625351788,0.03517929273551071,nan,nan,nan
20.62204377800026,1525271.0641794938,-4462456.591402674,4279878.490250378,-3.7116648055147112,-4.416707555246367,-2.5547484957016597,0.5280161172536753,-0.3636469160405531,0.2092524539962775,-0.7383585249916402,-0.3045833333333333,1.1887499999999998,10.658563299999997,0.06397722539341714,-0.01467167402457733,0.026452646475539063,nan,nan,nan
20.710721742000715,1525270.7734250436,-4462456.937386874,4279878.290123337,-3.7443296621624036,-4.580687603624863,-2.6976461727420946,0.5272616006585601,-0.3647864434533513,0.21025887745762697,-0.7380496325794315,-2.324583333333333,1.7387499999999998,9.908563299999997,0.0017998707911191514,-0.04194244358698873,0.013362677085581587,nan,nan,nan
20.78227332300048,1525270.4663033788,-4462457.313109241,4279878.068853935,-3.7261217926850816,-4.740765916694016,-2.745767723401859,0.5264423379944263,-0.3651865124852649,0.20984477036149757,-0.7385542964295104,-1.3745833333333335,1.1887499999999998,10.818563299999997,0.022525655658551816,-0.0015817046346198599,0.015544338650574502,nan,nan,nan
20.858328854999854,1525270.1824844247,-4462457.674213708,4279877.859708618,-3.7439555679843703,-4.867828693198973,-2.7545484072252,0.5257100607073063,-0.36648200968281464,0.21008664979382588,-0.7383654032964431,-0.7545833333333333,1.5687499999999996,10.778563299999997,0.019253163311062447,-0.034306628109513536,0.006817692390602856,nan,nan,nan
21.131970952999836,1525269.1603872129,-4462459.0031274855,4279877.107718859,-3.842451100751876,-5.252482580959019,-3.1166221882069287,0.528189631672484,-0.35786900308477554,0.21332137090247028,-0.7398915345493773,-1.4645833333333333,1.5187499999999998,9.778563299999997,-0.05492332989869657,0.042051526665238384,0.014453507868078044,nan,nan,nan
21.204026098000213,1525268.8815749572,-4462459.384253095,4279876.881573506,-3.8863060352118586,-5.312827246473214,-3.1361366854269352,0.5266287545044248,-0.3610728321473204,0.2116359523365448,-0.7399316110625238,-0.3645833333333333,1.4687499999999998,9.998563299999997,0.09670214886831081,-0.04957825906446392,-0.002999784651865251,nan,nan,nan
21.281488910000007,1525268.0791566225,-4462458.627835352,4279876.654852863,-4.603709179409306,-4.514931879991075,-2.6032227746337635,0.551003062851716,-0.3264444815232818,0.19564268191098047,-0.7426665246141428,-1.4745833333333334,1.7787499999999996,9.988563299999997,0.07379470243588525,0.02241657258030217,0.010090184738092221,42.41647,-71.129575,10.9
21.352819333000298,1525267.7267117386,-4462458.973483737,4279876.455558661,-4.688057460854722,-4.597088751978437,-2.6263845764836455,0.5509319735199201,-0.326430611952631,0.19543475225454804,-0.7427800982132107,-1.2745833333333334,1.7687499999999998,9.968563299999998,0.0050723631386085195,0.0038724492778624206,0.0013635384781205753,nan,nan,nan
21.424371830000382,1525267.3897840492,-4462459.303873563,4279876.266802083,-4.760229889748697,-4.630885082570529,-2.628237235560733,0.5509740090198094,-0.32647733330252376,0.19520995580510964,-0.7427874971589288,-0.6845833333333333,1.5087499999999998,9.798563299999998,0.0050723631386085195,0.0027816184953659644,-0.002999784651865251,nan,nan,nan
21.60236369100039,1525266.5422799315,-4462460.1283493275,4279875.798874707,-4.92983531656811,-4.592897331101871,-2.602526743291887,0.5524431600862925,-0.3228744786561911,0.19545286206960083,-0.7432071078588472,-0.10458333333333333,1.2587499999999998,9.488563299999997,-0.028743391118781613,0.03332488040526673,-0.0008181230868723362,nan,nan,nan
21.70630169300057,1525266.1937882856,-4462460.453022718,4279875.614901253,-5.001433387849403,-4.629738135916141,-2.633351859061727,0.5524631786695795,-0.32284783816480433,0.19491084337557354,-0.7433461329004045,-1.0645833333333334,1.4587499999999998,9.538563299999998,0.011617347833587255,0.010417433972841155,-0.002999784651865251,nan,nan,nan
21.77768073900006,1525265.6708174746,-4462460.9371275185,4279875.33954696,-5.075608735583427,-4.78640964315099,-2.689186291486518,0.5526604208296944,-0.32111093533722845,0.1939432035184433,-0.7442044482673733,-1.8745833333333335,1.4787499999999998,10.178563299999997,-0.0025634523388666716,0.040960695882741927,0.006817692390602856,nan,nan,nan
21.8544724100002,1525265.2805689326,-4462461.3051403975,4279875.13278338,-5.141466124610326,-4.8574962827115264,-2.669702657675105,0.5523503172033757,-0.3209552036668496,0.19183668453988978,-0.7450473618139927,-0.9445833333333333,1.4887499999999998,10.328563299999997,0.045433102090977395,0.03877903431774901,0.0013635384781205753,nan,nan,nan
21.926054823000413,1525264.9127505952,-4462461.652643651,4279874.941793968,-5.208362202405715,-4.872147426085781,-2.633700924591537,0.5516494220323416,-0.3221469617813305,0.18957929537860504,-0.7456298957974656,-0.28458333333333335,1.3887499999999997,10.018563299999997,0.07488553321838169,0.011508264755337613,-0.002999784651865251,nan,nan,nan
22.305868795000606,1525263.8457904644,-4462463.097684553,4279873.000840302,-4.077498070379425,-5.051446713292913,-3.590172539087578,0.5099110965470627,-0.38866268408221694,0.14691606629305304,-0.7532248413600686,-0.9535833333333334,1.5117499999999997,9.908563299999997,0.2036035655529635,-0.0375791204570029,-0.02481640030179437,42.416428,-71.129641,10.6
22.37779090300046,1525263.5312988528,-4462463.487295435,4279872.723935413,-4.048188422390101,-5.130015567145635,-3.658116109223413,0.5054796555456281,-0.39582503489616594,0.13854479660243463,-0.7540677684863997,-1.4145833333333335,2.03875,9.798563299999998,0.3061416591076304,-0.0375791204570029,-0.013908092476829809,nan,nan,nan
22.457723454000188,1525263.2089600805,-4462463.895775166,4279872.43265632,-4.004288748216351,-5.246035086082283,-3.7563293998268046,0.49889271697320364,-0.4080063358111468,0.12780758489158614,-0.7538581489179398,-1.9645833333333333,2.24875,9.868563299999998,0.42286055283475116,-0.11939142914423712,-0.02699806186678728,nan,nan,nan
22.8398607120007,1525261.7183380146,-4462465.848645239,4279871.034338705,-3.5329276533569147,-5.460558895342391,-4.056087792300408,0.5021299152915861,-0.40577764312553094,0.1316861323741225,-0.7522425244599276,-1.1085833333333333,1.64175,9.897563299999996,-0.02983422190127807,-0.0026725354171163156,-0.007363107781851074,nan,nan,nan
23.213962820000233,1525260.3618946532,-4462467.945189406,4279869.477031594,-3.4861516439408446,-5.316040213029002,-3.956837581365454,0.495118941241194,-0.41646715901034953,0.11709570736401582,-0.7534593123478626,0.4954166666666667,2.29875,9.468563299999998,0.10084730584179735,-0.005945027764605683,-0.007472190860100721,nan,nan,nan
23.28309803600041,1525260.1203239504,-4462468.313561096,4279869.202845003,-3.4873646105692533,-5.341219939661447,-3.950787743387316,0.49547737876605286,-0.4164358442112373,0.11755427509476331,-0.7531695345344805,-0.07458333333333333,3.09875,9.628563299999998,-0.015653421728824144,-0.008126689329598596,-0.006272276999354617,nan,nan,nan
23.364001799000107,1525260.0051430115,-4462468.844764592,4279868.271278251,-3.148691728609835,-5.878155901596346,-4.824742356577689,0.4924778796366145,-0.4471577014589034,0.1252128377457197,-0.7360959678703752,-1.6045833333333335,3.6887499999999998,9.888563299999998,-0.05383249911620011,-0.05066908984696038,-0.006272276999354617,42.416371,-71.129708,10.6
23.433984523000618,1525259.767944003,-4462469.287581124,4279867.907818058,-3.098756871383957,-6.012773159196431,-4.908917399431292,0.49338580834256185,-0.445783259550558,0.1259578597749179,-0.7361945040193555,-1.3445833333333335,3.0687499999999996,10.128563299999998,-0.04292419129123555,0.021325741797805713,-0.002999784651865251,nan,nan,nan
23.510466538999935,1525259.5298321596,-4462469.7496091435,4279867.530611513,-3.0337170487470235,-6.103384672241849,-5.012994166723318,0.4929726369238046,-0.4471795457221847,0.12571011822663045,-0.7356666363675085,-1.1945833333333333,2.5287499999999996,9.718563299999998,0.02579814800604118,-0.03103413576202417,-0.006272276999354617,nan,nan,nan
23.582080242999837,1525259.312764781,-4462470.186316223,4279867.171923645,-3.076463491784421,-6.160202285827274,-5.035108117952806,0.4924450169419187,-0.44827100622925736,0.12417564246922505,-0.73561635424818,0.04541666666666666,3.83875,9.298563299999998,0.053068917568452584,-0.0037633661996127714,-0.012817261694333353,nan,nan,nan
23.660975374000373,1525259.069910279,-4462470.672599535,4279866.774454707,-3.020452815419821,-6.212552347315312,-5.102055456991337,0.4933552464123785,-0.4474027042642861,0.12478789155575262,-0.7354314405382741,-0.44458333333333333,2.5787499999999994,9.598563299999997,-0.03310671424876743,0.009326603190344701,-0.009544769346843986,nan,nan,nan
23.742491988999973,1525258.8540159867,-4462471.116656991,4279866.409772747,-3.017757045119845,-6.273033527338402,-5.150274177039353,0.49351852309973177,-0.44763563783154947,0.12374033554671039,-0.7353571465731022,-0.3545833333333333,3.2487499999999994,9.458563299999998,0.022525655658551816,0.009326603190344701,-0.01827141560681563,nan,nan,nan
23.81458629900044,1525258.6062230277,-4462471.631746017,4279865.9868753245,-2.9583231761499906,-6.362449768377016,-5.186012370879101,0.4939964142732693,-0.44697585379206245,0.12353761064106965,-0.7354716773104529,-0.40458333333333335,2.8687499999999995,10.108563299999997,-0.00910843703384541,0.01696241866781989,-0.007363107781851074,nan,nan,nan
23.884540108000692,1525258.3996194643,-4462472.076087192,4279865.624694261,-3.0090362344489505,-6.437465511050589,-5.186507835766886,0.49364118452938066,-0.4482347673977579,0.12158213064902772,-0.7352698554244533,0.08541666666666665,4.17875,9.568563299999997,0.06288639461092069,-0.0026725354171163156,-0.02481640030179437,nan,nan,nan
23.960647554999923,1525258.1701642056,-4462472.566978693,4279865.229195036,-2.923212089385889,-6.4862707814969065,-5.2004700828578505,0.4945440391244885,-0.4469497597032953,0.12207396275137677,-0.735363892125881,0.005416666666666667,2.4187499999999997,10.178563299999997,-0.036379206596256805,0.02241657258030217,-0.006272276999354617,nan,nan,nan
24.03131579500041,1525257.9638654725,-4462473.024731809,4279864.862184242,-2.892862070139067,-6.528270643152818,-5.278390663199022,0.495306039966061,-0.4464028421257258,0.12242818095315804,-0.735124323077709,-0.6245833333333334,2.7087499999999998,9.258563299999997,-0.025470898771292248,0.006054110842855332,-0.012817261694333353,nan,nan,nan
24.109601199999815,1525257.7372488235,-4462473.536133591,4279864.448693666,-2.8812637024314216,-6.6158022896698725,-5.331802031785678,0.49663156386074453,-0.44468606550425727,0.12282797123158548,-0.7352038376963584,-0.5945833333333334,3.2887499999999994,9.678563299999997,-0.044015022073731994,0.032234049622770274,-0.013908092476829809,nan,nan,nan
24.181724592000137,1525257.5293589975,-4462474.013478995,4279864.063991844,-2.8142832605775583,-6.721633324774679,-5.418960080143682,0.49680368313270545,-0.44421524475724133,0.12204890958743611,-0.7355018565417129,-1.3345833333333335,2.6287499999999997,10.018563299999997,0.008344855486097888,0.024598234145295085,-0.007363107781851074,nan,nan,nan
24.25428013400051,1525257.3252566163,-4462474.500957063,4279863.670988527,-2.827123067473183,-6.798356867949797,-5.475560576985393,0.49653452528809167,-0.4452103747300414,0.12145361911771084,-0.7351803903734248,-0.6445833333333333,3.47875,9.418563299999997,0.027979809571034096,-0.016853335589570244,-0.009544769346843986,nan,nan,nan
24.325949710000714,1525257.1226489758,-4462474.988165795,4279863.278578864,-2.7411798563240635,-6.815873213484089,-5.516976037439336,0.49738031279623257,-0.4442420672662036,0.1223080737885275,-0.7350527503224904,-0.12458333333333334,2.0087499999999996,9.758563299999997,-0.04183336050873909,0.009326603190344701,-0.005181446216858161,nan,nan,nan
24.4026160530002,1525254.8479493118,-4462477.056610035,4279861.678482047,-5.7952360739022275,-9.305707452348912,-7.416333713406228,0.4504168567946122,-0.40410047217346173,0.28965215011495293,-0.7415720436983699,-1.6645833333333335,3.47875,8.918563299999997,0.11088294904076475,0.03332488040526673,-0.02481640030179437,42.41629,-71.1298,10.7
24.475330381000276,1525254.3949125675,-4462477.784074344,4279861.098717627,-5.981159206657493,-9.534774382070452,-7.617996114683213,0.45245623205647406,-0.40148056383282016,0.28983350665571556,-0.7416827178208588,-0.7645833333333333,3.9387499999999998,9.788563299999998,-0.05383249911620011,0.06386814231516749,-0.01608975404182272,nan,nan,nan
24.547481188000347,1525253.9631894156,-4462478.472299269,4279860.548846744,-6.047118390562803,-9.57952744895355,-7.741612966534911,0.4528034983036992,-0.4020603833108257,0.2914285117306647,-0.7405307982812591,0.5454166666666667,1.5387499999999998,8.898563299999998,-0.03856086816124972,-0.04194244358698873,-0.00845393856434753,nan,nan,nan
24.617571992000194,1525253.5386819101,-4462479.14478177,4279860.005385777,-6.1675350333766,-9.723233389425367,-7.892641216517812,0.45250081522485414,-0.40356933520271293,0.29132061688244587,-0.7399372288517851,-0.21458333333333335,2.8687499999999995,9.548563299999998,0.0203439940935589,-0.039760782021995816,-0.014998923259326266,nan,nan,nan
24.700433304999933,1525253.105857611,-4462479.827137306,4279859.451497248,-6.289651407349212,-9.903250032360159,-8.103542446944678,0.4529493669426129,-0.40342197748221226,0.2928632161563811,-0.7391337607293513,-1.1445833333333335,3.17875,9.518563299999997,-0.04619668363872491,-0.022307489502052524,-0.0008181230868723362,nan,nan,nan
24.774025307000556,1525252.564158113,-4462480.680059865,4279858.753575441,-6.488283596482209,-10.206746609605593,-8.333271697936018,0.45328816412536593,-0.40403228673050184,0.2931931927679126,-0.7384615791051555,-1.1045833333333335,4.038749999999999,10.278563299999997,-0.006926775468852495,-0.0179441663720667,-0.013908092476829809,nan,nan,nan
24.946572586000002,1525251.4438614352,-4462482.442403349,4279857.314714692,-6.633735469346967,-10.500339005849254,-8.470614062797212,0.4556952102835877,-0.40240478489117687,0.29994408668465306,-0.7351501954301156,0.9254166666666667,1.8187499999999996,10.248563299999997,-0.0887390841560867,-0.028852474197031255,-0.0008181230868723362,nan,nan,nan
25.01958869400005,1525250.9620742504,-4462483.205009695,4279856.699520836,-6.757561144464397,-10.644557998723796,-8.592484857855007,0.45512506070530717,-0.40376111167534257,0.29892049399556364,-0.7351766336349895,0.3154166666666667,2.6287499999999997,9.788563299999998,0.04434227130848094,-0.019034997154563152,-0.010635600129340441,nan,nan,nan
25.089094394999847,1525250.489701731,-4462483.949094221,4279856.098881991,-6.959140702641478,-10.83549439382808,-8.759725838566256,0.45473224687787706,-0.4046229942170682,0.29807686927433613,-0.7352883765983027,-0.3045833333333333,4.08875,9.648563299999998,0.034524794266012834,-0.009217520112095052,-0.007363107781851074,nan,nan,nan
25.165402833999906,1525249.9588067022,-4462484.77570635,4279855.430624931,-7.068942174797587,-10.984561764872886,-8.88695664734444,0.4550354481869297,-0.4041398473535901,0.29699462170837887,-0.735804267388671,0.28541666666666665,2.42875,9.838563299999997,0.015980670963573078,0.030052388057777366,-0.007363107781851074,nan,nan,nan
25.338570048000292,1525248.7368394916,-4462486.674544106,4279853.894388057,-7.326847277342611,-11.569688588804695,-9.50999070143478,0.4595773089608109,-0.39681334444190536,0.2931603217088985,-0.7385017894991517,-2.0145833333333334,3.2087499999999993,10.008563299999997,-0.017835083293817056,0.1107738659625151,-0.017180584824319178,nan,nan,nan
25.42162881100012,1525249.7978234263,-4462486.142819965,4279854.136394527,-4.943220346553648,-10.105882947085695,-7.773807254177614,0.441746663589554,-0.3988611857189231,0.18140906533341306,-0.7828540038257418,-0.7645833333333333,3.03875,10.108563299999997,0.03888811739599865,-0.010308350894591508,-0.010635600129340441,42.416198,-71.129893,10.7
25.490742486000272,1525249.427896108,-4462486.899096626,4279853.554639422,-4.977558355069322,-10.221967057562889,-7.8911359678304756,0.44267442444248184,-0.39676824213972367,0.17987879736048581,-0.7837460907658559,-1.1845833333333335,3.33875,9.328563299999997,0.0017998707911191514,0.07586728092262851,-0.014998923259326266,nan,nan,nan
25.667744676999973,1525248.5476966794,-4462488.706683584,4279852.159221654,-5.016807873377287,-10.413329878136075,-7.956125591468017,0.44207299559498153,-0.3995690889541402,0.17809098696598027,-0.7830706294046954,-0.11458333333333334,2.96875,9.878563299999998,0.03125230191852346,-0.02012582793705961,-0.011726430911836897,nan,nan,nan
25.749397452000267,1525248.1882374135,-4462489.45280901,4279851.589157355,-4.995313611625869,-10.49601751833928,-8.018875191609272,0.44261505691491326,-0.39860223792431393,0.17803275735427984,-0.7832703908482139,-0.6745833333333333,2.5887499999999997,9.838563299999997,-0.015653421728824144,0.026779895710287993,-0.005181446216858161,nan,nan,nan
26.02715843399983,1525246.7517089527,-4462492.4712036615,4279849.283127477,-5.012854016897921,-10.765796361055576,-8.125123059603979,0.44369621048643704,-0.40035341443212463,0.17953401686437057,-0.7814207277119054,-0.07458333333333333,2.79875,9.848563299999997,-0.008017606251348952,-0.0179441663720667,-0.009544769346843986,nan,nan,nan
26.09834132100059,1525246.3932414413,-4462493.241062153,4279848.702102649,-4.9724539680575255,-10.811145019965736,-8.14984783068723,0.44388387874761903,-0.4008361832713921,0.17917074891461726,-0.7811499853795764,-0.02458333333333334,2.0887499999999997,9.968563299999998,0.010526517051090799,-0.008126689329598596,-0.013908092476829809,nan,nan,nan
26.168344378000256,1525246.045489467,-4462493.9971469855,4279848.132137459,-4.973443884330099,-10.92851780463131,-8.162843771775465,0.4429650136477918,-0.4026085910516791,0.17665797074409653,-0.7813323755129545,-0.3045833333333333,3.1587499999999995,10.458563299999998,0.09015716417333208,-0.010308350894591508,-0.014998923259326266,nan,nan,nan
26.238730128000498,1525245.6944522294,-4462494.768507192,4279847.555984959,-4.9750502092929665,-10.973902434316804,-8.165716244484244,0.44357885271859054,-0.40286809773199617,0.17823986420045093,-0.7804906460792543,0.3854166666666667,2.67875,9.868563299999998,-0.04292419129123555,-0.03212496654452063,-0.007363107781851074,nan,nan,nan
26.3175488880006,1525245.3029422401,-4462495.632094943,4279846.913386524,-5.027255843392687,-11.086712642793632,-8.213689176806641,0.4452401633904835,-0.4013509292756437,0.18035323746466977,-0.7798405854829247,-0.29458333333333336,3.5687499999999996,9.728563299999998,-0.07892160711361859,0.007144941625351788,-0.011726430911836897,nan,nan,nan
26.38956407600017,1525244.9404824479,-4462496.4314351175,4279846.321188281,-5.018032091242097,-11.173115443818523,-8.29410728525137,0.4472018956946103,-0.3989341727246801,0.18229392369249545,-0.7795068417025999,-0.7945833333333333,2.67875,9.658563299999997,-0.09528406885106544,0.03441571118776319,-0.012817261694333353,nan,nan,nan
26.67393842799993,1525244.4845234929,-4462495.615114999,4279846.383922988,-3.0309273605809723,-6.811554150170326,-4.332478850271684,0.47726593507976967,-0.33633460832890294,-0.02294643619283289,-0.8115230865942571,-0.5645833333333333,1.9587499999999998,9.818563299999997,-0.013471760163831233,0.0005999569303730525,-0.029179723431780193,42.416103,-71.129991,10.6
26.754758277999827,1525244.2524284238,-4462496.136713818,4279846.052160838,-2.9146661725109766,-6.586244856747303,-4.217694316144274,0.47809594959970714,-0.33663606423573667,-0.023641531567707538,-0.810889327697748,-0.06458333333333334,2.09875,9.568563299999997,0.011617347833587255,-0.0037633661996127714,-0.0313613849967731,nan,nan,nan
26.82535852000001,1525244.018210123,-4462496.665974799,4279845.713233106,-2.8735589276493245,-6.404877274748994,-4.037934235389641,0.4787183485514197,-0.33689593693792347,-0.025170049229915073,-0.8103680272650378,0.09541666666666666,3.50875,9.758563299999997,0.02907064035353055,0.008235772407848244,-0.0313613849967731,nan,nan,nan
26.895661899000515,1525243.8162887148,-4462497.11603755,4279845.429492494,-2.835877995224405,-6.2411797505721305,-3.9203933570927765,0.4796234397653871,-0.33741920956404875,-0.024581343639813572,-0.8096328742994551,-0.16458333333333336,3.26875,9.308563299999998,-0.014562590946327687,-0.027761643414534798,-0.02481640030179437,nan,nan,nan
26.97128978100045,1525243.6019685087,-4462497.587711908,4279845.133210527,-2.7669916142339397,-6.022436951608462,-3.752538034418539,0.4805437500807666,-0.3371620704821143,-0.02533814927503491,-0.8091708232719397,0.4654166666666667,2.8687499999999995,9.788563299999998,0.0050723631386085195,0.010417433972841155,-0.03245221577926956,nan,nan,nan
27.042216636000376,1525243.406303613,-4462498.01358219,4279844.867853755,-2.670202683318263,-5.858208314460067,-3.6698955185817153,0.48134069115900535,-0.3384664217792234,-0.025036298910154537,-0.8081613729052919,-0.6945833333333333,2.4487499999999995,9.398563299999998,0.003981532356112064,-0.04412410515198164,-0.028088892649283735,nan,nan,nan
27.41854270100066,1525242.4005582798,-4462500.220105953,4279843.4855690645,-2.2447883287072132,-4.952203581035242,-2.9870012152482945,0.4823696408204151,-0.3346954545216926,-0.03170498980212095,-0.8088839697482538,-0.19358333333333333,2.8237499999999995,9.735563299999997,0.017071501746069535,0.03441571118776319,-0.014998923259326266,nan,nan,nan
27.487942114999896,1525242.2454532094,-4462500.562281594,4279843.279180325,-2.1361943618090846,-4.80878462596643,-2.8775898540506986,0.4823299445420373,-0.3343346497915363,-0.03389249668582033,-0.80896814879944,-0.8545833333333334,2.63875,9.878563299999998,0.04652393287347385,0.03986986510024547,-0.01936224638931209,nan,nan,nan
27.55803808500059,1525242.095061121,-4462500.900829048,4279843.076592604,-2.025141444257491,-4.666764648857134,-2.7786600168926414,0.4815879848970264,-0.3357693812550533,-0.03754056951576366,-0.808654834655428,-1.0245833333333334,2.6287499999999997,9.748563299999997,0.11088294904076475,0.01478075710282698,-0.020453077171808547,nan,nan,nan
27.632121026999812,1525241.9452076834,-4462501.246153434,4279842.870981407,-1.9397141295061382,-4.5282262023655715,-2.674798163379388,0.4817528518490883,-0.33556141140363127,-0.03845979573254549,-0.8085997610567476,-1.0245833333333334,3.09875,9.518563299999997,0.015980670963573078,0.015871587885323436,-0.012817261694333353,nan,nan,nan
28.016192834999856,1525232.6661355204,-4462516.503001429,4279829.345286988,-10.630795903271062,-22.627788799894482,-13.553668929487483,0.650263137375542,-0.4870269600769917,0.4542163034006273,-0.36558192325455,0.15541666666666665,1.9787499999999998,9.538563299999998,0.02121665871955607,0.004854196982109232,-0.024489151067045432,42.415891,-71.130211,10.7
28.088200232000418,1525231.7373085627,-4462518.480021817,4279828.161084676,-11.214696215330234,-22.826450604645842,-14.037735324203455,0.6515069497093224,-0.4857287687484983,0.45479629104079494,-0.3643715025942667,-0.6745833333333333,1.9487499999999998,9.948563299999998,-0.05056000676871074,0.0016907877128695082,-0.00845393856434753,nan,nan,nan
28.160394163000092,1525230.9272615563,-4462520.128795678,4279827.147127164,-11.623993750161643,-22.872085473431508,-14.407954048365195,0.6531758276631534,-0.4839886453813966,0.4551883157784313,-0.36320782898221693,0.09541666666666666,1.5287499999999996,8.178563299999997,-0.07237662241863986,0.015871587885323436,-0.010635600129340441,nan,nan,nan
28.23456697600068,1525230.0607489196,-4462521.833799269,4279826.073083722,-12.20927379167339,-22.989859092003755,-14.854979872367593,0.655371779544395,-0.48191230514805217,0.4561652085638435,-0.3607792452128501,-1.4745833333333334,2.96875,9.528563299999997,-0.10401071511103709,-0.0015817046346198599,-0.025907231084290827,nan,nan,nan
28.3069891490004,1525229.1832843574,-4462523.486050418,4279825.005475719,-12.815657116750515,-23.083149756220767,-15.170835741464153,0.656830117290357,-0.48160057248759075,0.45395639917248465,-0.3613290381453692,-0.14458333333333334,3.9887499999999996,9.618563299999998,0.003981532356112064,0.06932229622764978,-0.03027055421427665,nan,nan,nan
28.379457153000658,1525228.2483914364,-4462525.169949504,4279823.898774221,-13.397597835012215,-23.230546045605898,-15.501999909201158,0.6574314033494124,-0.48209380167572824,0.4518301303214215,-0.3622417013077569,-0.21458333333333335,3.3287499999999994,10.178563299999997,0.03343396348351638,0.05295983449020294,-0.023725569519297912,nan,nan,nan
28.45079503299985,1525227.2909750866,-4462526.830045953,4279822.790973527,-13.849554752973948,-23.384638976368723,-15.80774881337428,0.6585204990738831,-0.4814649921936423,0.4513287183620164,-0.36172448373023447,0.5254166666666666,1.8887499999999997,9.928563299999997,-0.027652560336285163,0.02241657258030217,-0.01936224638931209,nan,nan,nan
28.52679327700025,1525226.2380939587,-4462528.607810329,4279821.589225118,-14.274798548212118,-23.525795763136376,-16.107679952407633,0.6582630799031125,-0.4823764939954664,0.4508694639572315,-0.36155132789795463,1.0754166666666665,1.3887499999999997,9.508563299999997,0.02143482487605536,-0.005945027764605683,-0.017180584824319178,nan,nan,nan
28.59754688800058,1525225.2309707203,-4462530.2676148815,4279820.452787449,-14.73223735931043,-23.716917263946346,-16.421370291492927,0.6570667060049158,-0.48500723955603053,0.44906200616549946,-0.36245639270600677,0.2754166666666667,1.8287499999999999,10.478563299999998,0.09561131808581436,0.0038724492778624206,-0.029179723431780193,nan,nan,nan
28.886806176999926,1525221.1127107027,-4462536.897458654,4279815.8623460205,-16.429920346126085,-24.10175683783059,-18.03373168678033,0.6636859786934227,-0.47903783677639755,0.4528952166372633,-0.3534538101735143,-0.7845833333333333,1.4687499999999998,8.918563299999997,-0.08982991493858315,-0.012490012459584419,-0.02699806186678728,nan,nan,nan
28.95867991200066,1525219.770576814,-4462538.866292583,4279814.389199351,-17.08057824966309,-24.261869222065606,-18.36212105661554,0.6656054394870837,-0.4770203379524152,0.4531217457688409,-0.35228068379221794,0.2154166666666667,3.3287499999999994,10.238563299999997,-0.07019496085364695,0.021325741797805713,-0.010635600129340441,nan,nan,nan
29.03701919100058,1525225.4924659652,-4462527.678797075,4279820.256402602,-7.1712889416540655,-14.72094559929666,-6.303820844054837,0.6840682118970465,-0.3116120801644336,-0.014707492268633101,-0.6593423110915039,-0.5245833333333334,3.9987499999999994,9.478563299999998,0.06943137930589942,0.03332488040526673,-0.03572470812675893,42.415784,-71.130333,10.6
29.109505485000227,1525224.9341906446,-4462528.82480314,4279819.765658521,-7.111648912040215,-14.4866449848658,-6.081496718391378,0.6833206744026644,-0.311316316703195,-0.019226838675233955,-0.6601403912195841,0.6054166666666667,1.6887499999999998,10.528563299999997,0.0770671947833746,0.09113891187757889,-0.009544769346843986,nan,nan,nan
29.182560133000152,1525224.4130142436,-4462529.88645531,4279819.319976709,-7.265347966198767,-14.169739330905285,-5.923668343980623,0.6824224976220272,-0.3160427331271326,-0.02311001667648111,-0.6586975430824104,1.0954166666666665,3.8987499999999997,8.178563299999997,0.166515318948084,-0.024489151067045432,-0.041178862039241204,nan,nan,nan
29.253810809000242,1525223.8958215849,-4462530.895145491,4279818.898293151,-7.21324538970128,-13.899577955542606,-5.766720679106214,0.6839177403315316,-0.31367386089457094,-0.021354559734602527,-0.6583382237016101,1.0054166666666666,1.5587499999999999,9.648563299999998,-0.09092074572107961,0.006054110842855332,-0.020453077171808547,nan,nan,nan
29.3315583600006,1525223.3404759502,-4462531.965269897,4279818.454315026,-7.142330528687419,-13.536839255333524,-5.562100451954066,0.6832613772915817,-0.31610374189449275,-0.02427900591630533,-0.6577559160436124,2.035416666666667,1.4787499999999998,9.738563299999997,0.09888381043330373,0.006054110842855332,-0.021543907954305,nan,nan,nan
29.40416327500043,1525222.8190915997,-4462532.953448212,4279818.048286193,-7.080533809074831,-13.165410139512064,-5.369478069378674,0.6844321479980963,-0.3167144739552616,-0.020864306155895112,-0.656360615865495,2.3554166666666667,1.5887499999999997,9.528563299999997,-0.059286653028682385,-0.08775733645183989,-0.017180584824319178,nan,nan,nan
29.480058814000586,1525222.2796146194,-4462533.9565414665,4279817.639177234,-7.044834723793497,-12.900002421213133,-5.222369318616837,0.6850329919024007,-0.3175107651323035,-0.019762486271337268,-0.6553824522547614,0.6254166666666666,1.6587499999999997,9.438563299999997,-0.00910843703384541,-0.04194244358698873,-0.01827141560681563,nan,nan,nan
29.550817467000343,1525221.7821791847,-4462534.867410005,4279817.270425992,-7.0328632295382665,-12.682776217440143,-5.094275927263384,0.6856500520514524,-0.3183285414179711,-0.01921237162343723,-0.654356043124762,0.19541666666666668,1.8887499999999997,9.378563299999998,0.0007090400086226956,-0.03539745889200999,-0.025907231084290827,nan,nan,nan
29.937451593999867,1525219.1336312278,-4462539.64369243,4279815.351942203,-7.044302839555184,-11.392463273511257,-4.239914663753614,0.7083875625287495,-0.26898872872777896,0.024536295624257062,-0.6520966920831405,0.6824166666666666,2.25575,9.507563299999997,-0.3701734260401723,0.006054110842855332,-0.01827141560681563,nan,nan,nan
30.006637057000262,1525218.5760397534,-4462540.545462348,4279815.016331948,-7.101276477069262,-11.18265328624479,-4.092268705184846,0.7148835724150605,-0.24878679101756407,0.0361612347701073,-0.6524867632089631,-0.3145833333333333,1.4187499999999997,9.488563299999997,-0.5970662287994352,0.13149965082994777,-0.00845393856434753,nan,nan,nan
30.189111579999917,1525218.6793899836,-4462538.672220138,4279811.086802335,-3.5093715252037327,-4.653367162603309,-5.322591336684247,0.8709551275050016,-0.23207080032130714,-0.30159766142144784,-0.31083622808937933,1.7654166666666666,0.8487499999999997,9.738563299999997,0.6235734168140991,-0.5699045423152734,-0.025907231084290827,42.415671,-71.130456,10.6
30.462723596000615,1525217.7001993782,-4462539.970610284,4279809.601684161,-2.3781140312094378,-2.902395870009592,-5.183624171840006,0.8653233266982714,-0.26046907990564816,-0.30873660241055245,-0.29673744214991593,0.8954166666666666,1.2387499999999998,9.458563299999998,0.2330559966803678,-0.029943304979527713,-0.025907231084290827,nan,nan,nan
30.534720784000456,1525217.52841648,-4462540.180264643,4279809.227245437,-2.067753528293822,-2.6001932758711312,-5.191371979121569,0.8684568776685773,-0.2510422798265124,-0.3056887419115983,-0.2988558498589271,-0.06458333333333334,-0.05125000000000024,9.668563299999997,-0.29163360970042745,-0.007035858547102139,-0.033543046561766016,nan,nan,nan
30.60726220200013,1525217.3797361595,-4462540.367229658,4279808.853963593,-1.7507494185185382,-2.1982720237989275,-5.140158683112824,0.8684025865636967,-0.2531355950376336,-0.3061619156223143,-0.29675612909195886,0.6454166666666666,1.1887499999999998,9.948563299999998,0.07270387165338879,-0.02012582793705961,-0.03572470812675893,nan,nan,nan
30.695272358000693,1525217.242365098,-4462540.5397152,4279808.450645422,-1.2960113919543046,-1.7908558875201954,-5.138261002806517,0.867947815663979,-0.25411968509909744,-0.3079402794417762,-0.2954023692920015,1.5354166666666667,0.03874999999999984,10.518563299999997,0.048705594438466754,0.026779895710287993,-0.03027055421427665,nan,nan,nan
30.767584618,1525217.1356418545,-4462540.68718763,4279808.02752269,-0.9999812366887447,-1.4353175506323206,-5.071345811830364,0.8676275581876187,-0.2505154089252531,-0.3112151612620794,-0.2959891452769269,-0.7745833333333333,0.7487499999999998,9.778563299999997,-0.05492332989869657,0.10095638892004699,-0.03245221577926956,nan,nan,nan
30.84392455699981,1525217.0593545549,-4462540.796686185,4279807.6406361535,-0.5816745888872089,-1.0786908931447,-5.00787337001269,0.8676515627896013,-0.2486186199679612,-0.3128691428653582,-0.2957743183466568,0.5654166666666667,0.28874999999999973,10.998563299999997,-0.028743391118781613,0.05077817292521003,-0.0313613849967731,nan,nan,nan
30.915643256000294,1525217.017586812,-4462540.874142695,4279807.281040648,-0.23163602613278694,-0.7529401361219815,-4.98050840608531,0.8683660227701608,-0.24506101849098177,-0.31318105277646824,-0.2963160077570271,0.22541666666666665,0.10874999999999968,10.308563299999998,-0.09310240728607252,0.03441571118776319,-0.025907231084290827,nan,nan,nan
30.988684279000154,1525217.0006373432,-4462540.929237473,4279806.916602643,0.10303756184527774,-0.39013532023928,-4.96785382926608,0.8685099600324329,-0.24172195619548492,-0.314859586672578,-0.2968575187772879,0.3754166666666667,0.31874999999999976,9.858563299999997,-0.0712857916361434,0.06932229622764978,-0.028088892649283735,nan,nan,nan
31.06041502000062,1525217.0080013562,-4462540.957120135,4279806.561554059,0.3898729887901506,-0.0699412796567011,-4.939604776072262,0.8671711283797625,-0.24469346996147193,-0.3181907591187473,-0.2947778506451313,-0.4345833333333333,0.2687499999999997,9.738563299999997,0.12724541077821158,0.054050665272699396,-0.03572470812675893,nan,nan,nan
31.13686407900059,1525217.0378974047,-4462540.962483338,4279806.182777716,0.9238922327726911,0.41283997891157515,-5.012188353816779,0.8623586654768377,-0.2518844533084407,-0.3140351729461699,-0.3070401683296969,3.1254166666666667,-0.23125000000000018,10.448563299999998,0.059613902263431315,-0.03103413576202417,0.40060760487182345,nan,nan,nan
31.214344515000448,1525212.4007622064,-4462549.580782555,4279801.810801116,-2.9257731611017954,-11.190987498834868,-8.028834127588432,-0.016766049456372722,-0.5916207347879818,0.16838702683220452,-0.7882573282284848,-2.024583333333333,0.7987499999999997,12.168563299999997,-0.06801329928865403,0.09441140422506826,0.1693514789825748,42.415556,-71.130576,10.5
31.288110428000437,1525212.1699267323,-4462550.46372076,4279801.177348134,-2.406099977047463,-10.744549558491595,-8.431403545262324,-0.0255651010148374,-0.5884482677187796,0.18063576745627494,-0.7876838083273612,-1.0045833333333334,-0.8512500000000001,9.038563299999998,-0.11382819215350519,0.02241657258030217,0.37333683530941203,nan,nan,nan
31.359564929000044,1525211.9978564004,-4462551.232108702,4279800.574382995,-1.956562641566753,-10.47955335750421,-8.836358736336658,-0.025318527878048183,-0.5895989331597883,0.17045923951248393,-0.7890980410471802,-0.9745833333333334,1.1487499999999997,9.108563299999997,0.2265110119853891,-0.008126689329598596,-0.1797143714162911,nan,nan,nan
31.4381059490006,1525211.8441214103,-4462552.055529326,4279799.880074776,-1.3336582091836053,-10.164505727355326,-9.440522898670787,-0.025480110144525114,-0.591372703589745,0.17078516775827537,-0.7876937961330528,-3.424583333333333,1.3387499999999997,10.058563299999998,-0.011290098598838321,-0.057214074541939115,0.0013635384781205753,nan,nan,nan
31.50989668800048,1525211.7483293142,-4462552.785610919,4279799.201994387,-0.9069591022110426,-9.769918745210587,-9.575718794468482,-0.03823125157543932,-0.5914402476887003,0.17037609383299157,-0.7872158484328546,2.2154166666666666,-1.4812500000000004,9.258563299999997,0.21669353494292098,-0.07030404393189658,0.2729804033197381,nan,nan,nan
31.588339169999927,1525211.6772400604,-4462553.551396534,4279798.45143055,-0.44491670406171757,-9.49113647670043,-9.98186310918907,-0.04091786927789972,-0.600993748202785,0.1504901081253848,-0.7838909174802817,-0.27458333333333335,1.4787499999999998,8.858563299999997,0.41631556813977244,-0.2731985694762374,-0.2844341265359509,nan,nan,nan
31.691734943000483,1525211.6451638564,-4462554.235658613,4279797.731789607,0.023171955121141008,-9.167447484164393,-10.267855318502756,-0.039383640778257,-0.6014555926402468,0.15147822739448688,-0.7834248184114327,0.6154166666666667,0.45874999999999977,9.488563299999997,-0.04946917598621428,-0.010308350894591508,-0.01827141560681563,nan,nan,nan
31.762491346000388,1525211.6475289722,-4462555.171361936,4279796.683769821,0.7910033965750067,-8.70207666815023,-10.602305221377486,-0.039045980213593415,-0.6027704302640666,0.14936313196286197,-0.7828370681025649,0.9654166666666667,0.03874999999999984,10.618563299999998,0.02579814800604118,-0.027761643414534798,-0.033543046561766016,nan,nan,nan
31.83952842400049,1525211.7084172473,-4462555.841212964,4279795.867646806,1.431292809104778,-8.394848605086352,-10.720908391741531,-0.04083691055211121,-0.6014699819171676,0.14675241344530163,-0.7842384441570329,2.535416666666667,0.02874999999999983,11.878563299999998,0.08797550260833917,0.03877903431774901,-0.0008181230868723362,nan,nan,nan
31.91178664400013,1525211.8113679092,-4462556.4450413445,4279795.096508568,1.9908464709859826,-8.098130306507528,-10.923587415629168,-0.04442011983985579,-0.6023614561317391,0.14153589653769652,-0.784318251520566,1.4254166666666666,0.3987499999999997,11.048563299999998,0.17306030364306274,-0.03866995123949936,-0.012817261694333353,nan,nan,nan
31.98999963500046,1525211.9672740567,-4462557.07921797,4279794.241066194,2.498778387310867,-7.807478450779203,-11.094635016193605,-0.04182651287284708,-0.6005920813704333,0.14262435751673386,-0.7856194930217242,2.495416666666667,0.8887499999999997,10.018563299999997,-0.05492332989869657,0.06604980388016041,-0.03027055421427665,nan,nan,nan
32.06179758200051,1525212.1474438321,-4462557.6421617055,4279793.441108139,3.008377966199647,-7.494892727080949,-11.313891753726308,-0.033346929167072895,-0.5975158245026977,0.1524099283051724,-0.786532921176694,1.3354166666666665,0.42874999999999974,10.278563299999997,-0.34726597960774674,0.12713632769996194,-0.010635600129340441,nan,nan,nan
32.14101911800026,1525212.3858864678,-4462558.236203411,4279792.544374351,3.5056114427000784,-7.233338255443869,-11.648138078126143,-0.03486196509630125,-0.5973629221004674,0.15005983542662651,-0.7870350875518147,0.6154166666666667,1.5887499999999997,9.468563299999998,0.07161304087089233,0.0027816184953659644,-0.005181446216858161,nan,nan,nan
32.21803411300061,1525205.972446672,-4462561.132397873,4279791.9040294355,-0.8700453998443969,-12.730373998678573,-16.515320209459407,0.7955064679012884,-0.587924512639463,-0.13763768922256492,-0.050696094791246024,0.5954166666666667,0.8687499999999997,9.278563299999997,0.008344855486097888,0.015871587885323436,0.056995908385439824,42.41544,-71.130696,10.5
32.29242741800044,1525205.9031224176,-4462562.146739981,4279790.588107004,-0.7760176355954674,-12.857945230650298,-16.788931783533624,0.7965034326975706,-0.5858875452315986,-0.14002449075287857,-0.052069267227599185,0.8154166666666667,0.7387499999999998,9.628563299999998,-0.05710499146368947,0.06714063466265686,-0.01608975404182272,nan,nan,nan
32.364894254999854,1525205.8465518735,-4462563.084065274,4279789.364218573,-0.8264282979883114,-12.990159501910759,-16.973111097427328,0.7995273309039264,-0.5791319267190527,-0.15238156704952796,-0.046283011706193845,-1.2245833333333334,1.3387499999999997,9.548563299999998,-0.15637059267086698,0.175132882129806,-0.35533812739822057,nan,nan,nan
32.44121656900006,1525205.7834827732,-4462564.07541283,4279788.068910983,-0.8441504878522199,-13.101024861696208,-17.237499381261895,0.8078531286883788,-0.5648995709195023,-0.16159007752803772,-0.04637288695549089,-0.6745833333333333,0.4787499999999998,9.088563299999997,-0.4138066573400305,0.17840537447729538,-0.2048034794137096,nan,nan,nan
32.82453819900002,1525205.4685162792,-4462568.963621661,4279781.637315166,-0.19858675277297877,-13.747715898126199,-18.373826004677852,0.8038610498374767,-0.5691632338772735,-0.1669563320303013,-0.04456691046377059,0.8884166666666667,0.6797499999999997,10.085563299999995,0.03343396348351638,0.020234911015309262,-0.01936224638931209,nan,nan,nan
32.89696874600031,1525205.452135058,-4462570.097656915,4279780.121676743,-0.023030785683414018,-13.88337899233851,-18.72004753984547,0.8039697191640685,-0.5690615503584997,-0.16704747129992228,-0.043552100521966036,1.4554166666666666,-0.18125000000000036,9.788563299999998,0.0007090400086226956,-0.012490012459584419,-0.021543907954305,nan,nan,nan
32.966705771000306,1525205.4505239073,-4462571.068888018,4279778.812089759,0.054888220952529376,-14.042799724196284,-19.04830898422032,0.804697928182987,-0.5682616176071029,-0.1665541356355523,-0.04242285695241812,0.4554166666666667,-0.9812500000000004,9.888563299999998,-0.025470898771292248,-0.03212496654452063,-0.022634738736801458,nan,nan,nan
33.0445236530004,1525205.454770983,-4462572.155475134,4279777.3381922785,0.1646561841144504,-14.185273569836486,-19.375014254234213,0.8020216437288048,-0.571421413019261,-0.16871567478226143,-0.04211737614248699,0.7754166666666666,-0.3712500000000003,9.728563299999998,0.10870128747577183,0.048596511360217115,-0.021543907954305,nan,nan,nan
33.115711498000564,1525205.4665371769,-4462573.169142981,4279775.95366988,0.2181581966114645,-14.341547926336158,-19.67523954526017,0.8025102200883559,-0.5706875705201635,-0.16886292967358602,-0.04217054714287774,0.015416666666666662,-0.47125000000000017,9.838563299999997,-0.02438006798879579,0.0027816184953659644,-0.005181446216858161,nan,nan,nan
33.1934138000006,1525205.4835058958,-4462574.284653189,4279774.423295985,0.3398003829115984,-14.530199274861273,-20.043211732633633,0.8038075368492951,-0.5689014163872633,-0.16895600490035312,-0.041212754114361906,0.8354166666666667,-0.9612500000000004,10.158563299999997,-0.051650837551207196,-0.015762504807073786,-0.03027055421427665,nan,nan,nan
33.268928311999844,1525199.5990367914,-4462572.971184176,4279781.655778604,-7.720406467092745,-12.592210195718401,-5.696504562597747,0.971169445260959,-0.0034488839655151503,0.14346050548947115,0.19036044156379622,-0.06458333333333334,-0.32125000000000026,9.958563299999998,-0.059286653028682385,-0.02557998184954189,-0.023725569519297912,42.415321,-71.130816,10.4
33.6403186080006,1525196.6916519227,-4462577.713214476,4279779.51056368,-9.416876448344475,-10.102151156779314,-4.583322601507897,0.9695342782681551,0.004949249321374337,0.1336432080712335,0.20522739019774155,0.8254166666666667,-0.43125000000000036,9.768563299999997,-0.06452264078466538,0.04063344664799298,-0.07204937318389092,nan,nan,nan
33.71979300900057,1525196.037405862,-4462578.41507062,4279779.1921331715,-9.70402383497917,-9.584744516806996,-4.340972202805675,0.9693465688392846,0.003633564798376551,0.13341087575210034,0.20629000333066108,0.8254166666666667,0.28874999999999973,10.238563299999997,0.03125230191852346,0.013689926320330524,-0.03572470812675893,nan,nan,nan
33.795615676000125,1525195.2035226456,-4462579.238703962,4279778.819106072,-10.09657181072661,-8.950942835101804,-4.10248678290887,0.9690975971177052,0.0033135871602709647,0.13298852234956476,0.20773281127651694,0.2754166666666667,0.03874999999999984,9.658563299999997,0.0007090400086226956,0.010417433972841155,-0.03463387734426247,nan,nan,nan
33.8656458989999,1525194.496132714,-4462579.865828392,4279778.531676051,-10.391825873179227,-8.465138579794385,-3.894407175414709,0.9688605373678626,0.0031434613235923996,0.1326205953578096,0.2090721311553699,0.8054166666666667,-0.21125000000000016,9.728563299999998,-0.0025634523388666716,0.010417433972841155,-0.038997200474248296,nan,nan,nan
33.93948055800047,1525193.7365528014,-4462580.484579062,4279778.247018331,-10.67637157302914,-7.947643605747907,-3.6536415996724636,0.9683281937620788,0.0040167478940381866,0.13316653233362477,0.21116593031265174,1.1054166666666665,0.06874999999999964,9.968563299999998,-0.027652560336285163,-0.021216658719556067,-0.05535966221169514,nan,nan,nan
34.010493034999854,1525192.9696602768,-4462581.055464819,4279777.984574258,-11.028204745161135,-7.394476192425269,-3.4286333692340927,0.9677959084476555,0.003528206483868391,0.1335509848353451,0.21336064856771994,-0.05458333333333334,0.19874999999999976,10.108563299999997,0.007254024703601432,-0.009217520112095052,-0.06408630847166678,nan,nan,nan
34.0811583170007,1525192.190995585,-4462581.577564078,4279777.742489912,-11.325056942803515,-6.843470655655558,-3.2153835535371638,0.9674758993543298,0.002398457526820239,0.13294501295614086,0.21519817763368423,0.4854166666666667,0.5787499999999998,9.828563299999997,0.0203439940935589,0.02241657258030217,-0.056450492994191595,nan,nan,nan
34.15153448399997,1525191.397581767,-4462582.057005745,4279777.517225725,-11.472445907975228,-6.359726018479426,-2.905464766596992,0.966750596847699,0.002129835959159449,0.13450847370997884,0.21747693751375372,3.035416666666667,0.7287499999999998,10.588563299999997,0.008344855486097888,-0.04412410515198164,-0.0684496316016526,nan,nan,nan
34.22173378400021,1525190.588588431,-4462582.505469482,4279777.312343379,-11.712276346622083,-5.890134052729938,-2.6352940975578507,0.9663099073979157,0.0027500406441633147,0.1336150665751197,0.21996503058885977,1.8854166666666665,-0.05125000000000024,10.328563299999997,-0.03201588346627099,0.019144080232812805,-0.0684496316016526,nan,nan,nan
34.303893289999905,1525192.8005857514,-4462584.202771628,4279772.49505149,-8.259249376542543,-9.09502088620786,-6.1822300752438135,0.9905427925007715,-0.13565123044316788,0.013629294664090193,0.01542604251685728,0.3854166666666667,0.44874999999999976,9.208563299999998,0.010526517051090799,0.008235772407848244,-0.07717627786162426,42.415203,-71.130933,10.4
34.68456860400056,1525189.6933974044,-4462587.62438316,4279770.169252574,-9.45420098647254,-7.197452316155364,-5.091689736566213,0.9904482507815611,-0.13497112714026877,0.012578058147707114,0.025235894519685192,-0.5545833333333333,0.7987499999999997,9.668563299999997,-0.004308781590861004,-0.0015817046346198592,-0.052305336020705064,nan,nan,nan
34.75795578100042,1525188.9020320454,-4462588.226847022,4279769.743051896,-9.54186666562717,-6.746021831923568,-4.7891726221571,0.9904644204724294,-0.13439156658564697,0.009423802125993553,0.02881546666470458,1.5554166666666667,1.3987499999999997,10.198563299999998,-0.0167442525113206,0.06277731153267103,-0.09462957038156755,nan,nan,nan
34.82954261099985,1525188.2157592871,-4462588.7120362595,4279769.398603706,-9.516607973865186,-6.397200686807154,-4.618597649117966,0.9906452731521965,-0.13253323042230647,0.005304167174161959,0.03207416378287828,2.905416666666667,0.6187499999999997,9.118563299999998,-0.05601416068119301,0.09986555813755053,-0.10444704742403566,nan,nan,nan
34.902702796000085,1525187.5191350947,-4462589.180317056,4279769.060518238,-9.702216342788882,-5.98772586669312,-4.47328053669637,0.990603044337987,-0.1318534363409617,0.003953474085778985,0.03611994563658329,-0.09458333333333334,1.0387499999999998,8.628563299999998,-0.020016744858809967,0.021325741797805713,-0.11426452446650376,nan,nan,nan
34.97446332800064,1525186.8262524982,-4462589.607929769,4279768.741059454,-9.815544004839326,-5.595384746475183,-4.276089676661603,0.9902855792375913,-0.1331607945071558,0.003637361726883419,0.03986783812427613,0.8354166666666667,1.1987499999999998,9.388563299999998,0.03670645583100574,-0.0037633661996127714,-0.1055378782065321,nan,nan,nan
35.05084555600024,1525186.0729245627,-4462590.037366959,4279768.412876136,-9.878692217488949,-5.214791961297216,-4.11540745922767,0.9904702013775428,-0.13057431689270846,0.0012933565601061048,0.04378876267588674,1.6354166666666665,0.5987499999999998,8.868563299999998,-0.07019496085364695,0.04423318823023129,-0.10881037055402148,nan,nan,nan
35.12280366300001,1525185.3623401157,-4462590.412472285,4279768.116850663,-10.11022374941424,-4.9088374431572115,-3.8869576057213564,0.9902231840896288,-0.13082692874972002,4.171969958663519e-05,0.04839792579774316,-0.7345833333333334,-0.04125000000000023,10.138563299999998,0.006163193921104975,0.018053249450316347,-0.13171781698644705,nan,nan,nan
35.20133168400025,1525184.568824656,-4462590.797749456,4279767.811777202,-10.086383586090673,-4.581036698603076,-3.5713808923228827,0.9901218702643712,-0.12966822234725767,-0.001595172483290683,0.05331313270648204,2.7554166666666666,0.43874999999999975,10.928563299999997,-0.030925052683774528,0.023507403362798628,-0.12953615542145414,nan,nan,nan
35.27343007699983,1525183.8410700618,-4462591.128281254,4279767.5540942745,-10.187209954162528,-4.208964072360225,-3.447951246662547,0.9896399239762944,-0.13157929339178553,-0.0039435659882281395,0.05730758472273585,0.9754166666666667,0.6087499999999998,8.468563299999998,0.05088725600345967,0.05295983449020294,-0.11862784759648959,nan,nan,nan
35.35774641700027,1525187.002764262,-4462595.318008042,4279763.289643568,-3.4131943348484945,-9.573300786427604,-6.475756503763941,0.8836041273825812,-0.28848125281864334,-0.31590171822036345,0.19033764164457687,3.2154166666666666,0.5687499999999998,8.768563299999997,0.009435686268594343,0.06277731153267103,-0.11862784759648959,42.415086,-71.131043,10.4
35.430064051000045,1525186.737255404,-4462596.062705211,4279762.785901166,-3.012310229198467,-9.6548415269076,-6.5863302970872155,0.8836531043764244,-0.28485623132712373,-0.3171012466732112,0.1935482330455522,3.205416666666667,-0.10125000000000028,11.628563299999998,-0.06255914537617176,-0.01467167402457733,-0.1109920321190144,nan,nan,nan
35.50242780900044,1525186.5191390207,-4462596.761796259,4279762.308995922,-2.6904026840304924,-9.514449118914628,-6.696838330285037,0.8807827729534867,-0.2890765241973382,-0.3174026244286524,0.19977999046175804,2.2954166666666667,1.7387499999999998,9.368563299999998,0.17851445755554501,0.006054110842855332,-0.13280864776894352,nan,nan,nan
35.57435670900031,1525186.325632526,-4462597.446120472,4279761.827327613,-2.38555712862126,-9.454966693941403,-6.907172930868324,0.8795778524109402,-0.28970288583012926,-0.31612186379939544,0.2061116378921721,3.2554166666666666,0.3987499999999997,9.078563299999997,0.08797550260833917,-0.06812238236690368,-0.14589861715890098,nan,nan,nan
35.65267186300025,1525186.1386795319,-4462598.187093854,4279761.286021498,-2.100133565169761,-9.368256200761204,-7.054778419729397,0.877198452062662,-0.291548817787143,-0.31726987853700944,0.2118064854428306,2.115416666666667,0.7687499999999998,9.278563299999997,0.09888381043330373,0.012599095537834068,-0.13389947855143997,nan,nan,nan
36.036178277000545,1525185.3542271273,-4462601.686371817,4279758.65088534,-0.7770291469600257,-9.089363625424326,-7.6821691114464485,0.86403461426035,-0.30408372536778827,-0.32488573277511107,0.23542840636239812,1.9554166666666668,0.6177499999999998,9.591563299999997,0.11088294904076475,0.035506541970259646,-0.11644618603149667,nan,nan,nan
36.11221222699987,1525185.2875263384,-4462602.46660989,4279757.991441944,-0.5285870257726559,-8.981311476955213,-7.832562213365152,0.8626623641789762,-0.30400441146175927,-0.32398094608547634,0.24172569241028588,1.2954166666666667,1.0387499999999998,8.918563299999997,0.06070473304592777,-0.052850751411953285,-0.1284453246389577,nan,nan,nan
36.184291911999935,1525185.2494153809,-4462603.114159609,4279757.426716683,-0.35305821420842387,-8.879081136797879,-7.9196465306659904,0.8626817120159403,-0.3009069062318148,-0.3232934794162845,0.2464074354781123,0.5954166666666667,1.1287499999999997,8.938563299999997,-0.027652560336285163,-0.07684902862687533,-0.13389947855143997,nan,nan,nan
36.25794374599991,1525185.2234733372,-4462603.766577541,4279756.844796175,-0.12895866178802767,-8.826234718815277,-8.04151043311196,0.861989877112349,-0.3003850203568216,-0.32146478938019835,0.2517988900820608,1.5254166666666666,0.8487499999999997,9.388563299999998,0.053068917568452584,-0.08448484410435052,-0.1208095091614825,nan,nan,nan
36.32897880500059,1525185.214275532,-4462604.396097011,4279756.271246122,0.03435627739085595,-8.743236305480096,-8.047907357694426,0.8600321652600725,-0.30006618487369796,-0.3245489944445379,0.25489784262562515,-0.14458333333333334,1.2887499999999998,9.728563299999998,0.014889840181076624,0.06386814231516749,-0.11753701681399312,nan,nan,nan
36.411242807000235,1525181.4326756985,-4462606.289703864,4279753.634172238,-3.9215645391902223,-12.061034446272954,-10.458532984700371,0.7266507301747035,-0.4085984578317542,-0.33571649648489277,0.4385435567178418,0.6154166666666667,1.0887499999999997,9.738563299999997,0.15015285721063715,0.09441140422506826,-0.12408200150897186,42.414973,-71.131153,10.3
36.69471685999997,1525180.3406585506,-4462609.648275756,4279750.721840375,-4.0179453060836865,-12.26090498369685,-10.980458812045422,0.7275795653459521,-0.38940245291088527,-0.3452666951149639,0.4469727235068324,-0.4845833333333333,1.1087499999999997,9.068563299999997,-0.11273736137100873,-0.0375791204570029,-0.1153553552490002,nan,nan,nan
36.76620698500028,1525180.0115800588,-4462610.65247064,4279749.822516828,-4.033358003570359,-12.370232491209627,-11.14100137543351,0.7263578457112719,-0.3857405272318856,-0.3500227528226004,0.4484334941636041,-0.05458333333333334,0.7487499999999998,9.628563299999998,-0.09310240728607252,0.040960695882741927,-0.1153553552490002,nan,nan,nan
36.83920651000062,1525179.7185107365,-4462611.551308692,4279749.012996393,-3.967005389519833,-12.497604061725873,-11.305626367368744,0.7256029703342468,-0.3825099421453122,-0.35268946041168003,0.45032945570256616,0.7154166666666667,1.4887499999999998,10.038563299999998,-0.0712857916361434,0.0005999569303730525,-0.10662870898902857,nan,nan,nan
36.91481114399994,1525179.4167829843,-4462612.501868022,4279748.153098083,-3.9352082944425764,-12.565730078079834,-11.354654129477124,0.7238996773377621,-0.38164525728163967,-0.3514457411167162,0.4547549299923867,-1.1845833333333335,1.6287499999999997,9.958563299999998,0.056341409915941956,-0.0626682284544214,-0.10008372429404983,nan,nan,nan
36.98678970800029,1525179.1336371133,-4462613.405996678,4279747.33610869,-3.891165109653943,-12.679695616371205,-11.592755186527173,0.7213820568836011,-0.3822401549341057,-0.3519864564147001,0.45782739872106964,1.4654166666666666,1.0187499999999998,9.358563299999997,0.06179556382842423,0.010417433972841155,-0.09353873959907111,nan,nan,nan
37.0601620110001,1525178.8498875713,-4462614.330618924,4279746.490747755,-3.8492114003376834,-12.836564429574562,-11.797020130366088,0.7205224916726889,-0.3798874608556029,-0.35193637995991867,0.46116552461769467,1.2254166666666666,0.9887499999999998,10.078563299999997,-0.004745113903859585,-0.057214074541939115,-0.09899289351155338,nan,nan,nan
37.131770214000426,1525178.5728890847,-4462615.254368896,4279745.641805885,-3.8486988932529966,-12.929306821983248,-11.993009704716172,0.7201340365879736,-0.3762894503130156,-0.35359377319820523,0.46344866279107866,0.6654166666666667,0.7287499999999998,9.268563299999997,-0.06692246850615757,-0.03321579732701708,-0.10335621664153921,nan,nan,nan
37.20894403700004,1525178.2754564,-4462616.253563311,4279744.714969785,-3.7877773747306303,-13.06783518717117,-12.234164700284763,0.7169903416512358,-0.3770168349829259,-0.3556983444115322,0.46611355317984404,1.4754166666666666,1.1887499999999998,9.648563299999998,0.04325144052598448,0.05077817292521003,-0.1011745550765463,nan,nan,nan
37.28085906200067,1525178.0044721854,-4462617.1884590825,4279743.839716257,-3.6940604141897957,-13.260297630879187,-12.501843429137091,0.7148167047178504,-0.37662036022259987,-0.3563471002030144,0.4692663717503717,2.4854166666666666,1.3387499999999997,10.228563299999998,0.0377972866135022,-0.0037633661996127714,-0.10226538585904274,nan,nan,nan
37.359375250000085,1525177.7144286435,-4462618.229607104,4279742.858119167,-3.6370766218545363,-13.39737151807484,-12.686960405646492,0.7116767479776857,-0.37705072995916744,-0.3585939139403336,0.47197389638290393,0.7254166666666667,1.3787499999999997,9.948563299999998,0.03561562504850929,0.048596511360217115,-0.10444704742403566,nan,nan,nan
37.436526116000095,1525174.9684130365,-4462616.868930634,4279744.827131234,-6.796571317882122,-11.282792456865463,-7.991908080860983,0.7995693899483396,-0.36800508787895536,-0.11916420567379965,0.4594136900395081,2.925416666666667,1.4587499999999998,10.188563299999997,0.03234313270101992,-0.03539745889200999,-0.09899289351155338,42.414868,-71.131268,10.3
37.50961801199992,1525174.4350890417,-4462617.75428645,4279744.200009683,-7.0165533779777505,-11.228592963356274,-7.88355127536007,0.7978693263770894,-0.3677370725564431,-0.12097283811701853,0.4621034045414971,-0.4945833333333333,1.5587499999999999,9.968563299999998,-0.0025634523388666716,0.013689926320330524,-0.09244790881657464,nan,nan,nan
37.58151978800015,1525173.9284514026,-4462618.565058852,4279743.630769546,-7.233127673110141,-11.191025046856204,-7.805252032372037,0.7964148421123596,-0.36730260131857567,-0.12390944439396524,0.4641752346630246,-0.3545833333333333,1.1987499999999998,9.908563299999997,-0.025470898771292248,0.043142357447734835,-0.095720401164064,nan,nan,nan
37.681752557000436,1525173.3645085387,-4462619.437585786,4279743.022220052,-7.484311119857477,-11.167710845324079,-7.717124128677556,0.7947821976776572,-0.36657721070276256,-0.12498886016054216,0.46724746359992864,-0.39458333333333334,0.9487499999999998,10.128563299999998,-0.0025634523388666716,-0.010308350894591508,-0.09462957038156755,nan,nan,nan
37.76026020400059,1525172.6115194438,-4462620.561158062,4279742.245807872,-7.706388629249298,-11.282149216877373,-7.784413418987752,0.7915286951015684,-0.36780047855180376,-0.1260968129951224,0.47149202232602844,2.055416666666667,0.5287499999999997,9.728563299999998,0.04325144052598448,0.006054110842855332,-0.10226538585904274,nan,nan,nan
