# t [sec],r_ecef_X,r_ecef_Y,r_ecef_Z,v_ecef_X,v_ecef_Y,v_ecef_Z,q_e2b_scalar,q_e2b_i,q_e2b_j,q_e2b_k,accel_X [m/s^2],accel_Y [m/s^2],accel_Z [m/s^2],gyro_X [rad/s],gyro_Y [rad/s],gyro_Z [rad/s],gps_lat [deg],gps_long [deg],gps_alt [m]
0.0,1525981.334149413,-4462991.48422882,4279152.625344593,0.0,0.0,0.0,0.901797015,-0.39979036,-0.066508461,-0.150021455,0.0,0.0,0.0,0.0,0.0,0.0,0.0,0.0,0.0
0.39205366399983177,1525980.995397115,-4462990.727469064,4279153.392972393,-0.09834175707236313,0.2306280832720932,0.23085505450430197,0.902049088200258,-0.39881032820976847,-0.06796117907159815,-0.15046276378640544,0.013904761904761831,-0.015047619047619032,9.804979966666668,-0.004363323129985823,0.00891635596127538,-0.001517677610429852,42.407206,-71.123471,65.3
0.4739460129994768,1525980.9865874052,-4462990.706808802,4279153.413652988,-0.08849433330366159,0.23383797104742335,0.23801145195965887,0.9019591449923515,-0.3991851857704202,-0.06734376413004413,-0.1502854158447968,0.08190476190476181,0.08095238095238096,9.858979966666668,0.006544984694978736,-0.015081921253646652,0.002845645519555972,nan,nan,nan
0.8580986069991923,1525980.9526403972,-4462990.617107019,4279153.504955745,-0.11103474966183043,0.17192841881888135,0.2132332031672531,0.9018698900436893,-0.39929236225972836,-0.06739997275759167,-0.15051098000694366,-0.12809523809523815,-0.10904761904761903,9.858979966666668,0.000654498469497874,0.0007351250925519597,0.0011003162675616424,nan,nan,nan
0.9440181759991901,1525980.9430315283,-4462990.602228454,4279153.523408797,-0.12265562822472355,0.18305835695503772,0.22711872354231363,0.9019486964968815,-0.39910242278293867,-0.06748905609335659,-0.15050260091020884,-0.10809523809523819,0.260952380952381,9.788979966666668,-0.004363323129985823,0.0023713712662966433,-0.001517677610429852,nan,nan,nan
1.0256211189998794,1525980.9330204034,-4462990.587287272,4279153.541946176,-0.11519432341676049,0.18810349372236093,0.22426277990109697,0.9019085134321039,-0.3992803161070291,-0.06716515021037943,-0.1504164409967388,0.08190476190476181,0.02095238095238096,9.758979966666669,0.003272492347489368,-0.008536936558667916,0.0017548147370595162,nan,nan,nan
1.1073293919998832,1525980.9236122258,-4462990.57192444,4279153.560262218,-0.12335719032874835,0.19168981828191925,0.2255006212532393,0.9018819715551719,-0.39926704828912124,-0.06724507615628622,-0.15057501062171155,-0.09809523809523818,0.09095238095238097,9.758979966666669,2.168404344971009e-19,0.0034622020487930995,0.002845645519555972,nan,nan,nan
1.1882016969993856,1525980.9136624122,-4462990.556463014,4279153.578450774,-0.12164758503125257,0.20472165711376292,0.23669776216131752,0.9016840008531313,-0.3998792371818796,-0.06675317095863086,-0.1503548236673542,0.05190476190476184,0.23095238095238096,9.788979966666668,0.014180800172453928,-0.015081921253646652,0.0017548147370595162,nan,nan,nan
1.2726431149994823,1525980.9034004395,-4462990.539193061,4279153.598418173,-0.12426917073928055,0.212491350992179,0.24516899611110674,0.901688892184373,-0.3998178640818649,-0.0668654986746452,-0.1504387679957185,-0.008095238095238155,0.18095238095238098,9.798979966666668,-0.0010908307824964558,0.0034622020487930995,0.0006639839545630601,nan,nan,nan
1.354790411999602,1525980.8932179203,-4462990.521781685,4279153.61850713,-0.12052195303576162,0.2150312851487908,0.2507921464411903,0.9015894271651553,-0.4000873695780756,-0.06673958217935307,-0.15037430051499398,0.041904761904761834,0.10095238095238097,9.838979966666669,0.006544984694978736,-0.004173613428682092,0.0006639839545630601,nan,nan,nan
1.4430471409996244,1525980.6948452792,-4462989.10685291,4279154.89139129,-0.4105917640703191,2.4663457760625884,2.4670461742440666,0.9393753502533481,-0.29444072691335427,-0.06469553741420014,-0.16338022422119391,-0.08809523809523817,0.18095238095238098,9.788979966666668,0.004363323129985825,0.004553032831289556,0.0017548147370595162,42.407225,-71.123468,65.1
1.525132857999779,1525980.6587546933,-4462988.8900637,4279155.108242064,-0.4418861593052767,2.6213029811379194,2.6003042472382623,0.9392776906110932,-0.2948177014186441,-0.06440517674866203,-0.16337660975561039,-0.09809523809523818,0.200952380952381,9.788979966666668,0.007635815477475192,-0.00744610577617146,0.002845645519555972,nan,nan,nan
1.6077908439992825,1525980.6222539262,-4462988.673538318,4279155.323032904,-0.4698189867254554,2.7682903340145613,2.7219990423116807,0.9391267356958691,-0.2953264266308466,-0.06424636917190575,-0.1633881288210629,-0.06809523809523815,0.19095238095238098,9.748979966666669,0.011999138607461015,-0.005264444211178548,0.002845645519555972,nan,nan,nan
1.6901139259998672,1525980.5836523622,-4462988.446088301,4279155.546679507,-0.4879304771267253,2.9158364896711855,2.8443843546653427,0.9390480942369425,-0.2956904287260623,-0.06390399336686114,-0.16331603490862912,0.05190476190476184,0.19095238095238098,9.778979966666668,0.007635815477475192,-0.009627767341164372,0.0017548147370595162,nan,nan,nan
1.7700950149992423,1525980.5444655307,-4462988.21191069,4279155.77511863,-0.5006995772633975,3.0470025030098715,2.962044156377425,0.9390160494068897,-0.2958430846573088,-0.06375932208370544,-0.16328036508073226,0.06190476190476185,0.04095238095238096,9.858979966666668,0.003272492347489368,-0.004173613428682092,0.0006639839545630601,nan,nan,nan
1.8561575369994898,1525980.5014957692,-4462987.950418618,4279156.029319624,-0.5192258120076656,3.187196877975109,3.0880404650046116,0.9389728204798031,-0.29598326923330553,-0.0637365855825284,-0.16328378654720574,0.011904761904761807,0.060952380952380966,9.848979966666668,0.003272492347489368,-0.0009011210811927245,0.0006639839545630601,nan,nan,nan
2.2397869429996717,1525980.3022065493,-4462986.727108903,4279157.21457113,-0.6243874878106466,3.845366628131851,3.654853472497607,0.9388941969557343,-0.29655018752096096,-0.06281440189054503,-0.16306448011755142,-0.014095238095238166,0.14695238095238097,9.799979966666669,0.0021816615649929124,-0.005264444211178548,0.0006639839545630601,nan,nan,nan
2.3261119959997814,1525980.2483520526,-4462986.395439406,4279157.52980854,-0.6492237625027162,3.9905285202584646,3.781707218517157,0.9389222308772603,-0.2961996353449609,-0.06326874037096439,-0.16336427833096429,-0.018095238095238164,0.130952380952381,9.808979966666667,-0.006544984694978736,0.013279679091261204,0.002845645519555972,nan,nan,nan
2.407887307999772,1525980.195271099,-4462986.06917122,4279157.839003361,-0.6769805845510799,4.123340400896686,3.9029253122958876,0.9389411060133139,-0.2961628674749748,-0.06323115284074357,-0.1633370050988757,-0.09809523809523818,0.10095238095238097,9.838979966666669,-0.0010908307824964558,-0.0009011210811927245,-0.0004268468279333958,nan,nan,nan
2.8970174460000635,1525981.3389969536,-4462987.683449905,4279156.150248897,1.1965793262807272,0.015568597983159016,0.41998545308162516,0.8650515552709919,-0.4662818614707489,-0.1018224414508163,-0.1545937364848609,-0.021095238095238167,0.13795238095238097,9.809979966666669,-0.002181661564992912,0.010007186743771835,-0.0004268468279333958,42.40724,-71.123455,65.1
2.979468147999796,1525981.4440658381,-4462987.682082863,4279156.187126856,1.2754425326021939,-0.06083526679942808,0.30179948732924394,0.8649195539507593,-0.4666182467909847,-0.1016178037189403,-0.1544519325855465,0.05190476190476184,-0.13904761904761903,9.888979966666668,0.007635815477475192,-0.006355274993675004,0.0006639839545630601,nan,nan,nan
3.062225129999206,1525981.5495172292,-4462987.687112617,4279156.212079118,1.3369710029441868,-0.13335141960534103,0.18957429117673685,0.8648898265299995,-0.4665667711280234,-0.10190442750139057,-0.15458500657061033,-0.08809523809523817,-0.11904761904761904,9.838979966666669,2.168404344971009e-19,0.007825525178778924,-0.0004268468279333958,nan,nan,nan
3.144509463999384,1525981.659504598,-4462987.698082916,4279156.227674653,1.408121914061544,-0.19225967005761535,0.08944313938529574,0.8648477992358887,-0.46668314413082645,-0.10171380704107665,-0.1545944020815783,0.0719047619047618,0.060952380952380966,9.828979966666669,0.0021816615649929124,-0.004173613428682092,0.002845645519555972,nan,nan,nan
3.2246795879991623,1525981.7723645133,-4462987.713492385,4279156.234843453,1.4718048973740343,-0.26366538415996665,-0.021830921682899962,0.8649145520271596,-0.46636574051435664,-0.10217791811833313,-0.15487248745952412,-0.04809523809523819,-0.15904761904761905,9.848979966666668,-0.006544984694978736,0.01437050987375766,-0.0004268468279333958,nan,nan,nan
3.3106631959999504,1525981.8988416533,-4462987.7361500375,4279156.232967449,1.5397375347483178,-0.34138744594373105,-0.140984871547863,0.86490499548919,-0.46636045374538504,-0.10221073979084172,-0.15492011227853972,-0.06809523809523815,-0.16904761904761906,9.858979966666668,2.168404344971009e-19,0.0012805404838001873,0.0006639839545630601,nan,nan,nan
3.3838603379999768,1525982.026668888,-4462987.76449163,4279156.221263048,1.6062462736273366,-0.4183738933252914,-0.25474528438362337,0.8649454849714799,-0.4661308779296527,-0.10258795815275723,-0.1551355022771205,-0.06809523809523815,-0.16904761904761906,9.888979966666668,-0.004363323129985823,0.011098017526268291,-0.0004268468279333958,nan,nan,nan
3.4660782989994914,1525982.1421950448,-4462987.794582363,4279156.2029409865,1.6577040527108278,-0.47341713658789597,-0.35287537997776924,0.8649965969429787,-0.46592993714521036,-0.10291738241607977,-0.15523592980458056,-0.09809523809523818,-0.06904761904761904,9.738979966666667,-0.004363323129985823,0.010007186743771835,-0.002608508392926308,nan,nan,nan
3.5361507699999493,1525982.275061888,-4462987.832527279,4279156.174657628,1.725180934955379,-0.5235435580015775,-0.45816886799593914,0.8648942915295531,-0.46629361331616137,-0.1024253624547121,-0.15503927355001165,0.06190476190476185,0.02095238095238096,9.698979966666668,0.007635815477475192,-0.013991090471150196,0.002845645519555972,nan,nan,nan
3.606028497999432,1525982.3959394435,-4462987.869210194,4279156.142555295,1.7737946241593365,-0.566097233838518,-0.5293896888414914,0.8648067354146523,-0.46657595897668735,-0.10218088580579696,-0.15483943948207443,-0.06809523809523815,0.310952380952381,9.798979966666668,0.007635815477475192,-0.009627767341164372,-0.0004268468279333958,nan,nan,nan
3.6765861579997363,1525982.5207723102,-4462987.909049948,4279156.105298878,1.8318952895369538,-0.6349506830971203,-0.6345611709915275,0.8649205895088081,-0.46626050158538224,-0.1024104729735174,-0.15500198091369052,-0.058095238095238144,-0.29904761904761906,9.868979966666668,-0.008726646259971648,0.00891635596127538,-0.0004268468279333958,nan,nan,nan
3.752337742999771,1525982.6599799274,-4462987.9573005065,4279156.057077918,1.8885671066316765,-0.6889860687289644,-0.73234583456805,0.8649251276931869,-0.46619645476013466,-0.10255994407472177,-0.1550704597340839,-0.04809523809523819,0.02095238095238096,9.748979966666669,-0.0010908307824964558,0.004553032831289556,-0.0004268468279333958,nan,nan,nan
4.13174735299981,1525981.0533239355,-4462987.059693672,4279156.981301656,-0.5522719772878113,-0.0786186186558715,0.5275591411603155,0.8975074462153299,-0.4215191944931566,-0.044666790254626006,-0.12168332287939275,-0.04109523809523817,-0.05704761904761905,9.811979966666668,-0.007635815477475192,0.012188848308764747,0.0017548147370595162,42.40725,-71.123456,65.1
4.204473595999843,1525981.0103314696,-4462987.06581386,4279157.022370313,-0.5988460840626744,-0.10963703086446319,0.5092475117061741,0.8974812505034678,-0.4215595792080216,-0.04464859632351754,-0.12174329376097458,-0.028095238095238173,0.12095238095238096,9.808979966666667,0.0010908307824964562,0.00018970970130373146,0.0017548147370595162,nan,nan,nan
4.2768301449996216,1525980.9669928246,-4462987.07374832,4279157.059224687,-0.6358757436274425,-0.14730656454095792,0.4846708957280024,0.8973802382223461,-0.4217772787519741,-0.044636921836964626,-0.12173816551209203,0.021904761904761816,-0.049047619047619034,9.848979966666668,0.006544984694978736,-0.0009011210811927245,0.0006639839545630601,nan,nan,nan
4.355030302999694,1525980.9173268257,-4462987.085253914,4279157.097080611,-0.6865974983338864,-0.1921939523022267,0.445302661273564,0.8973586019501788,-0.42179842644040394,-0.044769272130173114,-0.1217757766885463,-0.12809523809523815,-0.17904761904761904,9.758979966666669,0.0010908307824964562,0.0034622020487930995,-0.0004268468279333958,nan,nan,nan
4.427212983999198,1525980.8675571734,-4462987.09918555,4279157.129359433,-0.7343117640687369,-0.22551553499100696,0.41413838530898356,0.8973963154022525,-0.421652041418606,-0.045050228890859974,-0.12190113413586023,-0.10809523809523819,-0.049047619047619034,9.718979966666668,-0.0032724923474893677,0.00891635596127538,-0.0004268468279333958,nan,nan,nan
4.515370841999356,1525980.8103112988,-4462987.116766412,4279157.161645059,-0.7807880479352947,-0.2519902072880723,0.39988610872355707,0.8974668078209229,-0.4214026616549902,-0.045456488568966634,-0.12209354533936845,-0.018095238095238164,0.200952380952381,9.798979966666668,-0.0054541539124822805,0.012188848308764747,-0.0004268468279333958,nan,nan,nan
4.587718307999239,1525980.7457895551,-4462987.13759005,4279157.194690325,-0.8320320314684093,-0.28495490518436795,0.3757687932938543,0.897464205644709,-0.42137146493559724,-0.045690927824300995,-0.12213282849356788,-0.06809523809523815,0.08095238095238096,9.768979966666668,2.168404344971009e-19,0.005643863613786011,-0.001517677610429852,nan,nan,nan
4.660091606999231,1525980.6857779485,-4462987.158142867,4279157.221793235,-0.8706882175658086,-0.31038390417836326,0.3591091441990074,0.8973285489399138,-0.42169806891257905,-0.04539212950229398,-0.12211375462568543,0.021904761904761816,0.14095238095238094,9.788979966666668,0.008726646259971648,-0.008536936558667916,0.003936476302052429,nan,nan,nan
4.729866921999928,1525980.6248119485,-4462987.179876094,4279157.246938227,-0.9107347857241965,-0.3534782770428792,0.3309811734235076,0.8973721434941446,-0.42149893521162757,-0.04583015416581759,-0.12231713380418384,-0.07809523809523816,-0.13904761904761903,9.868979966666668,-0.004363323129985823,0.01437050987375766,-0.0004268468279333958,nan,nan,nan
4.8060143249995235,1525980.5554446315,-4462987.206799233,4279157.272147845,-0.958071848128612,-0.39163306284211,0.29380239334509584,0.8974489608174222,-0.421292602662577,-0.04594851640682742,-0.12241993328815946,-0.10809523809523819,-0.12904761904761902,9.718979966666668,-0.0054541539124822805,0.004553032831289556,0.0006639839545630601,nan,nan,nan
5.185011866999957,1525981.026010401,-4462987.045988781,4279156.967474774,0.12316226166131661,-0.3325268417245882,-0.26803053745832134,0.8891557083663374,-0.42621136495389833,-0.08492613846710778,-0.1432953252046369,-0.054095238095238175,0.001952380952380961,9.782979966666668,-0.006544984694978736,0.012188848308764747,-0.0004268468279333958,42.40725,-71.123456,65.1
5.257391831999485,1525981.0355702986,-4462987.07179963,4279156.946670151,0.14369362161563196,-0.36121450283372697,-0.3033367509499486,0.8890880578893126,-0.4264180112002161,-0.08483634094761522,-0.14315341719298247,-0.07809523809523816,0.04095238095238096,9.838979966666669,0.0054541539124822805,-0.004173613428682092,-0.001517677610429852,nan,nan,nan
5.3300957429992195,1525981.04601219,-4462987.0980482735,4279156.924627353,0.1705061804602226,-0.37963910197431777,-0.3367813415732117,0.8889408741155217,-0.4268407381601761,-0.08446635199392105,-0.14302636998537213,0.06190476190476185,0.09095238095238097,9.778979966666668,0.01090830782496456,-0.011809428906157283,0.002845645519555972,nan,nan,nan
5.407968371999232,1525981.0593072602,-4462987.1276503,4279156.898367123,0.18878354885474008,-0.4076543944467698,-0.38156767885578263,0.8890775203209184,-0.42654482738998756,-0.08460410717020189,-0.14297838540678515,-0.08809523809523817,-0.029047619047619037,9.748979966666669,-0.007635815477475192,0.0034622020487930995,-0.003699339175422764,nan,nan,nan
5.792319332999796,1525981.1299250862,-4462987.280140637,4279156.755634982,0.2881103312801921,-0.5380270127536955,-0.5786958970643101,0.8890987401941285,-0.4268148038417673,-0.08405448352696394,-0.14236361108966072,-0.05909523809523818,0.002952380952380964,9.778979966666668,0.0010908307824964562,-0.004173613428682092,-0.001517677610429852,nan,nan,nan
6.166209529999833,1525981.2404586712,-4462987.486554806,4279156.5336181875,0.40997386511809425,-0.722862036785699,-0.9118216181085561,0.8890948959024496,-0.4266920028742135,-0.08446109544952936,-0.14251499807253729,-0.028095238095238173,-0.34904761904761905,9.678979966666668,-0.0003272492347489367,0.0023713712662966437,-0.0002086806714341046,nan,nan,nan
6.552206843999556,1525980.7803919117,-4462986.810819128,4279157.134557788,-0.21208329640560808,0.14268567737300408,0.24879653656609713,0.9098162324493876,-0.3822106691946933,-0.06597642681051477,-0.1476365103468948,-0.08809523809523817,-0.19904761904761903,9.888979966666668,-0.0003272492347489367,0.0023713712662966437,-0.0002086806714341046,42.407253,-71.123458,65.0
6.625108913999611,1525980.7617047608,-4462986.798246762,4279157.156479828,-0.22838137196230715,0.19083924118581674,0.2920843965272052,0.909762631585801,-0.3821398159084173,-0.06641583772878826,-0.14795287196633902,-0.018095238095238164,0.42095238095238097,9.728979966666667,2.168404344971009e-19,0.012188848308764747,0.002845645519555972,nan,nan,nan
6.998965279000004,1525980.67639897,-4462986.726963836,4279157.26558019,-0.24389880947742595,0.22023526228528623,0.27811872398349136,0.9097162978636579,-0.3821137014531235,-0.0668111103027845,-0.14812715031312831,-0.03809523809523818,-0.29904761904761906,9.708979966666668,0.00021816615649929123,0.0023713712662966437,0.00011856856331483217,nan,nan,nan
7.072634902999198,1525980.6582722948,-4462986.710595847,4279157.286250106,-0.2516906613792418,0.22636618983429801,0.30058306338151386,0.9098318595836113,-0.38169032890224336,-0.06731573466315609,-0.14828038485460546,-0.10809523809523819,-0.03904761904761904,9.928979966666668,-0.009817477042468103,0.015461340656254116,-0.002608508392926308,nan,nan,nan
7.144482929999867,1525980.640187066,-4462986.694330308,4279157.307848497,-0.25616302587272927,0.2525374238553649,0.31821120944837444,0.9099496147383597,-0.38134109946828526,-0.06743781009871368,-0.14840083160031595,0.011904761904761807,0.09095238095238097,9.708979966666668,-0.009817477042468103,0.005643863613786011,0.0006639839545630601,nan,nan,nan
7.216956473999744,1525980.6216142643,-4462986.676020376,4279157.33092003,-0.2845647992415937,0.2847551818724026,0.3351363994445496,0.9099624316771999,-0.38113280766601687,-0.06781204279993852,-0.14868652684349407,-0.2780952380952382,0.200952380952381,9.568979966666667,-0.004363323129985823,0.013279679091261204,0.002845645519555972,nan,nan,nan
7.29299458999958,1525980.5999763152,-4462986.654367951,4279157.356403381,-0.29874822333552786,0.31536717700590866,0.3652100219851299,0.9098496220558842,-0.38143423572302443,-0.06763078133454879,-0.14868647226960838,-0.10809523809523819,0.24095238095238097,9.758979966666669,0.007635815477475192,-0.005264444211178548,0.002845645519555972,nan,nan,nan
7.364811868999823,1525980.5785396148,-4462986.631738756,4279157.382609052,-0.29659736769740697,0.31075585439058623,0.3827469746906469,0.9099871573825147,-0.3810832915692798,-0.06776173018332314,-0.14868505898348278,-0.04809523809523819,-0.21904761904761905,10.018979966666668,-0.009817477042468103,0.004553032831289556,-0.002608508392926308,nan,nan,nan
7.465787441999964,1525980.5569113682,-4462986.609078055,4279157.410519434,-0.29254138772947,0.33715286657437554,0.38923573518846255,0.9099952074727797,-0.38117938117970224,-0.06740177020517057,-0.1485530331901256,0.11190476190476184,-0.059047619047619036,9.628979966666668,0.0010908307824964562,-0.010718598123660827,0.0006639839545630601,nan,nan,nan
7.538146573999256,1525980.5275572615,-4462986.575247556,4279157.449576018,-0.2975461826353703,0.3404127368446325,0.4157854961440851,0.910231367426236,-0.3804984652581463,-0.06780956042149222,-0.1486662024864722,-0.08809523809523817,-0.12904761904761902,9.948979966666668,-0.013089969389957472,0.010007186743771835,-0.002608508392926308,nan,nan,nan
7.621328790000007,1525980.6107883528,-4462986.824599652,4279157.118620779,-0.1446411217799093,-0.030180819397472136,-0.055920544895661006,0.9025708751177177,-0.39803031161799746,-0.07178445426450393,-0.14759633838686248,0.031904761904761825,0.04095238095238096,9.698979966666668,-0.006544984694978736,0.00891635596127538,0.0006639839545630601,42.407253,-71.12346,65.0
7.694727632999275,1525980.5993979292,-4462986.8269763775,4279157.114217062,-0.1411485031701696,-0.025679373776904824,-0.06826706079615563,0.9025763257881799,-0.39803454779783976,-0.07175797653059944,-0.14756445455141734,-0.018095238095238164,-0.06904761904761904,9.668979966666669,2.168404344971009e-19,-0.0009011210811927245,-0.0004268468279333958,nan,nan,nan
7.76656153499971,1525980.5892617512,-4462986.828820469,4279157.109314657,-0.14688190316652605,-0.02870590765604414,-0.0729700512594974,0.9024598592524402,-0.39824340613620807,-0.07160265299195995,-0.14778853997639566,-0.16809523809523816,-0.03904761904761904,9.768979966666668,0.0054541539124822805,-0.0019919518636891806,0.008299799432038252,nan,nan,nan
7.838949207999576,1525980.5786273903,-4462986.830898798,4279157.10403157,-0.14587787539216696,-0.04327510535030038,-0.08677186024353128,0.9024507895197903,-0.3981628063809333,-0.07143917951040418,-0.14813978634246472,-0.12809523809523815,-0.24904761904761902,9.818979966666667,-0.0032724923474893677,0.00018970970130373146,0.010481460997031164,nan,nan,nan
7.9167912969996905,1525980.5672663115,-4462986.834269096,4279157.097273712,-0.1505372973233821,-0.09552092347475355,-0.11774374033399776,0.9025515505656698,-0.39760422387041333,-0.07174154827162914,-0.14887824065405048,-0.3480952380952382,-0.689047619047619,9.988979966666667,-0.014180800172453928,0.016552171438750568,0.012663122562024075,nan,nan,nan
7.98948370799917,1525980.5563027067,-4462986.841225868,4279157.088698456,-0.15629734041502738,-0.11934734163431276,-0.1450496456907162,0.9023943377252053,-0.3977570944680858,-0.07129389234099441,-0.1496360067410566,-0.26809523809523816,-0.45904761904761904,9.758979966666669,0.0021816615649929124,-0.0030827826461856367,0.02466226116948509,nan,nan,nan
8.06787977499971,1525980.544101896,-4462986.850542305,4279157.077375658,-0.1756429689515655,-0.13029338754379177,-0.14975798812981767,0.902115723241055,-0.397946256993677,-0.0713755437649424,-0.15076979384145195,-0.36809523809523814,-0.06904761904761904,9.798979966666668,0.0054541539124822805,0.013279679091261204,0.026843922734478005,nan,nan,nan
8.140218199999254,1525980.5313502315,-4462986.860001594,4279157.066503241,-0.1972684603591847,-0.15713039381903654,-0.17861991084672468,0.9019357410431557,-0.3978856856693542,-0.07133079971046945,-0.15202242511475383,-0.49809523809523815,-0.44904761904761903,9.718979966666668,-0.002181661564992912,0.013279679091261204,0.032298076646960286,nan,nan,nan
8.218132492999757,1525980.5159998098,-4462986.872228676,4279157.0526039535,-0.19637624517942953,-0.20031767094006275,-0.20790003356050013,0.9016111665147841,-0.3982888164428255,-0.07037844282595025,-0.15333035725048955,-0.2780952380952382,-0.6190476190476191,9.938979966666668,0.006544984694978736,-0.009627767341164372,0.04211555368942839,nan,nan,nan
8.29090615199948,1525980.5017892625,-4462986.88672444,4279157.0375595,-0.2047830878757766,-0.24370407377244513,-0.23080273225576736,0.9013174680979582,-0.3983628074874169,-0.0699669086636847,-0.1550436311527234,-0.4080952380952382,-0.569047619047619,9.978979966666667,2.168404344971009e-19,0.00891635596127538,0.04866053838440712,nan,nan,nan
8.36891710799955,1525980.4857846892,-4462986.9057708355,4279157.019521393,-0.21050971616887545,-0.27239090160446183,-0.2565289399445502,0.9009351495406919,-0.39884482273507266,-0.0683265803126016,-0.1567486608524944,-0.2980952380952382,-0.439047619047619,9.818979966666667,0.0054541539124822805,-0.02162690594862539,0.058478015426875224,nan,nan,nan
8.456723145999604,1525980.4705014823,-4462986.925546676,4279157.000897147,-0.1970754265939242,-0.27935519319591795,-0.25081916296603646,0.9006328536298508,-0.39895308374258337,-0.06726252742915349,-0.15865891999954607,0.05190476190476184,-0.019047619047619035,9.968979966666668,-0.002181661564992912,-0.005264444211178548,0.06065967699186814,nan,nan,nan
8.529481429999578,1525980.4531557595,-4462986.950134306,4279156.978821134,-0.1804510742698466,-0.29461245510790224,-0.261550572682711,0.9001203913216543,-0.39952856792107594,-0.06597112648169774,-0.16064873348198744,0.031904761904761825,-0.21904761904761905,9.888979966666668,0.008726646259971648,-0.009627767341164372,0.05520552307938586,nan,nan,nan
8.601444910999817,1525980.4401194078,-4462986.971418034,4279156.9599259,-0.15981312053222896,-0.28801280109698485,-0.2616817884427571,0.8998738184024587,-0.39958482563580155,-0.064979108513982,-0.16228614878928432,0.22190476190476183,0.02095238095238096,9.808979966666667,-0.0032724923474893677,-0.006355274993675004,0.05302386151439295,nan,nan,nan
8.68414581199977,1525980.560338942,-4462986.684012667,4279157.268709971,0.03444072977519355,0.23907334647362177,0.23973147783451615,0.9079672264634284,-0.3761676536859087,-0.0726490622421174,-0.16975136612361424,0.0719047619047618,0.5009523809523809,9.678979966666668,-0.009817477042468103,-0.008536936558667916,0.05302386151439295,42.407255,-71.12346,65.0
9.055624519000048,1525980.573320824,-4462986.593897795,4279157.359072914,0.14072794421926363,0.5437583580302593,0.4901772544351138,0.9064424701329288,-0.3770559544699,-0.06896041510295711,-0.17730007682931143,0.22190476190476183,0.5009523809523809,9.798979966666668,0.0010908307824964564,-0.002864616489686345,0.0454971291151674,nan,nan,nan
9.45863255399945,1525980.6255285775,-4462986.392172384,4279157.540920617,0.13847795320185277,0.5886999572407322,0.5013481266970199,0.904876614380397,-0.37790294054565043,-0.06532500025851737,-0.18471687841772977,-0.2880952380952382,-0.319047619047619,9.728979966666667,0.0010908307824964564,-0.002864616489686345,0.0454971291151674,nan,nan,nan
9.532366965999245,1525980.6402119724,-4462986.329750073,4279157.594080649,0.16784004527268268,0.5622224456729719,0.48379918229794305,0.9041711889453342,-0.37832502936969314,-0.06300394277893653,-0.18808279289891172,-0.16809523809523816,-0.769047619047619,9.908979966666669,2.168404344971009e-19,-0.016172752036143108,0.07702213872931497,nan,nan,nan
9.604442027000005,1525980.6523161936,-4462986.28920394,4279157.628971085,0.18816940314851335,0.5652872889478184,0.500619597779147,0.90380915418636,-0.3783274441916068,-0.06153913880358412,-0.1902900226823289,-0.028095238095238173,-0.29904761904761906,9.998979966666669,-0.007635815477475192,-0.01290025968865374,0.07265881559932916,nan,nan,nan
9.687077304999548,1525980.4875512251,-4462986.7050239695,4279157.2811728,-0.10603645403494089,-0.17445367967318748,-0.12021269659298106,0.8924867832158335,-0.4095968083654407,-0.04684164013643622,-0.1830400438919624,0.041904761904761834,0.200952380952381,9.758979966666669,0.003272492347489368,-0.006355274993675004,0.06829549246934333,42.407255,-71.123461,65.0
10.058748003999426,1525980.4475746432,-4462986.770794387,4279157.235851662,-0.10266110338474255,-0.18795046068140864,-0.0974221158278854,0.8904693316622377,-0.4104121753821984,-0.04081518852783196,-0.19225071289657586,0.11190476190476184,0.200952380952381,9.868979966666668,0.00010908307824964583,-0.008755102715167207,0.05891434773987381,nan,nan,nan
10.132685825999943,1525980.4399745835,-4462986.784708466,4279157.228639448,-0.10611883023633514,-0.25999798715945677,-0.16556364715215927,0.8899562937089899,-0.40970369477997476,-0.04006948189489473,-0.19625268137993696,-0.33809523809523817,-1.069047619047619,9.878979966666668,-0.019634954084936207,0.030732971611204498,0.10647456985671928,nan,nan,nan
10.20478605199969,1525980.432308434,-4462986.803491027,4279157.216678935,-0.12597811242568854,-0.28339132117013727,-0.1895837461258928,0.8892171073406826,-0.4095292536464852,-0.03852338770405236,-0.20023654905378713,-0.2780952380952382,-0.18904761904761902,9.748979966666669,-0.008726646259971648,0.00891635596127538,0.11956453924667676,nan,nan,nan
10.277262263000011,1525980.4231730313,-4462986.824041373,4279157.202931119,-0.12669682271649302,-0.31838429486994896,-0.21637799430870025,0.8881933805036607,-0.40987942420943707,-0.036465443390133453,-0.20440559785467058,-0.10809523809523819,-0.39904761904761904,9.898979966666667,0.004363323129985825,-0.004173613428682092,0.13156367785413775,nan,nan,nan
10.466684057999373,1525980.4007956542,-4462986.88027487,4279157.164714123,-0.11541791415422314,-0.41497902959133276,-0.30118570469302125,0.8849907452227709,-0.41194430195641424,-0.029553049567678173,-0.21498811774998694,-0.07809523809523816,-0.539047619047619,9.888979966666668,0.015271630954950384,-0.0238085675136183,0.14683530880908816,nan,nan,nan
10.539138936999734,1525980.39097064,-4462986.915600192,4279157.139075522,-0.11444466977073306,-0.4458926560704148,-0.3250075451607734,0.8835203319665261,-0.4122102232672613,-0.026869841253958464,-0.22079983474505965,0.0019047619047618536,-0.23904761904761906,9.878979966666668,0.0021816615649929124,0.00018970970130373146,0.15447112428656334,nan,nan,nan
10.917044021000038,1525980.3078172056,-4462986.703876275,4279157.360759062,-0.1224052802487075,-0.12894383023702183,0.06780894492757877,0.8874689793059175,-0.3934997491593726,-0.02098292045170042,-0.23899053493242314,0.041904761904761834,-0.32904761904761903,9.938979966666668,-0.0023998277214922034,-0.003846364193933155,0.09829333898799586,42.407256,-71.123463,65.0
10.988746636999167,1525980.2983590025,-4462986.713839709,4279157.3659986295,-0.1074833282947498,-0.1427129519896666,0.05678036363268124,0.8860859118033907,-0.3935165775699201,-0.018047372805672493,-0.244275977068496,0.12190476190476185,-0.499047619047619,9.868979966666668,-0.006544984694978736,-0.01290025968865374,0.15992527819904562,nan,nan,nan
11.363085691999913,1525980.2581386718,-4462986.767242988,4279157.387245879,0.004448391112435918,-0.42002332980266655,-0.14908305361084329,0.8811401736940224,-0.3935562918739259,-0.009143902329610489,-0.2619576855826989,-0.09809523809523818,-1.159047619047619,9.998979966666669,-0.0027270769562411394,-0.0045008626634310284,0.10898348065646113,nan,nan,nan
11.461622109000018,1525980.258466949,-4462986.798239376,4279157.3762440225,-0.006776527250856285,-0.42754806988533334,-0.13925757810472306,0.8797005198956952,-0.3928933224535127,-0.0066473270297478645,-0.26780150497483646,-0.08809523809523817,-0.12904761904761902,9.928979966666668,-0.019634954084936207,0.007825525178778924,0.17628773993649247,nan,nan,nan
11.53673292699932,1525980.2577877366,-4462986.841092581,4279157.362286216,-0.01974279482241087,-0.43691267721079674,-0.17941288828669977,0.8780129955846394,-0.3909429628698558,-0.003637487756515688,-0.2761223435482751,-0.17809523809523817,-0.5190476190476191,9.558979966666667,-0.038179077387375956,0.023097156133729306,0.17846940150148538,nan,nan,nan
11.608662408999407,1525980.2563715614,-4462986.872432869,4279157.349416707,-0.0029770716149773724,-0.4819370923863306,-0.2271508334875283,0.876219890707337,-0.3910763932349764,-3.61444889908409e-05,-0.28159892938977,-0.21809523809523818,-1.199047619047619,9.818979966666667,-0.0054541539124822805,-0.02926272142610058,0.187196047761457,nan,nan,nan
11.681610143999933,1525980.2561533907,-4462986.907750973,4279157.332770267,0.016863616546030608,-0.5527971867894508,-0.2886576326242212,0.8750125388237,-0.3891034489089593,0.002174006094144616,-0.28800492565701463,-0.38809523809523816,-1.519047619047619,9.938979966666668,-0.05126904677733343,0.030732971611204498,0.18610521697896057,nan,nan,nan
11.752965189999486,1525980.2573548553,-4462986.9471355425,4279157.312204574,0.03153502434290309,-0.5588734353498279,-0.30017728312546316,0.872945083571752,-0.38921955662120383,0.005772157741137889,-0.29400969467562743,0.11190476190476184,-0.589047619047619,9.788979966666668,-0.0032724923474893677,-0.0238085675136183,0.20355850949890386,nan,nan,nan
11.830295089999709,1525980.2597911719,-4462986.990312698,4279157.289013633,0.0635236957984241,-0.6140527555817618,-0.33536243140620786,0.8707536714754767,-0.3889645502437189,0.010055351045309776,-0.30065513921730813,-0.09809523809523818,-1.229047619047619,10.058979966666667,-0.015271630954950382,-0.028171890643604126,0.2101034941938826,nan,nan,nan
11.901608636999299,1525980.2643304588,-4462987.034191783,4279157.265049248,0.05932503126462388,-0.6699528165017095,-0.3876826679138908,0.8692996943868788,-0.38678148711803784,0.012197566459755213,-0.307521287866129,-0.5880952380952382,-1.209047619047619,9.808979966666667,-0.05345070834232634,0.040550448653672605,0.20355850949890386,nan,nan,nan
11.98608817799959,1525980.2672570264,-4462986.588565703,4279157.5453428235,0.10573188908800998,-0.0799323336085429,0.1655098860899213,0.8712730109127143,-0.3624434372481148,0.013757789096786372,-0.33064908747307564,-0.03809523809523818,-0.429047619047619,9.788979966666668,-0.04908738521234052,0.00891635596127538,0.2101034941938826,42.407258,-71.123463,65.0
12.058671635999417,1525980.2754870914,-4462986.594787556,4279157.558225948,0.17211004783836398,-0.06589007353411269,0.17133777026200342,0.8687079731932976,-0.3621597148726384,0.01867295170982422,-0.3373990510729821,0.48190476190476184,-1.1690476190476191,9.888979966666668,-0.02181661564992912,-0.04562518316354742,0.21883014045385424,nan,nan,nan
12.130415749999884,1525980.287858653,-4462986.599523846,4279157.570541997,0.22466278841607035,-0.08525276241419705,0.15242049136226188,0.8663922115957026,-0.36086725045398177,0.021711049343707912,-0.3444822116296136,0.05190476190476184,-1.559047619047619,9.898979966666667,-0.032724923474893676,0.00891635596127538,0.2242842943663365,nan,nan,nan
12.203589600999294,1525980.3043230404,-4462986.605771585,4279157.5817121165,0.2604498295535874,-0.11239127760631612,0.1242311759466902,0.8639541973349116,-0.35926442084664195,0.024539410075035295,-0.35200857763842736,-0.25809523809523816,-1.559047619047619,9.818979966666667,-0.03599741582238305,0.020915494568736395,0.2297384482788188,nan,nan,nan
12.381596626999453,1525980.350698027,-4462986.62578367,4279157.603832381,0.26423550519685246,-0.05041726672186281,0.16903453065659002,0.8571084802284148,-0.35624385459587726,0.03231736367370406,-0.37068984035866664,-0.03809523809523818,-0.549047619047619,9.728979966666667,-0.0272707695624114,0.010007186743771835,0.24064675610378336,nan,nan,nan
12.46359126399966,1525980.369685546,-4462986.6294065695,4279157.615978918,0.29015236047435045,-0.041213715050148314,0.1873513869989485,0.8540627556414078,-0.3554709857867616,0.036528579687902206,-0.37799848030477756,0.031904761904761825,-0.919047619047619,9.938979966666668,-0.025089107997418487,-0.022717736731121846,0.24828257158125855,nan,nan,nan
12.540289728999596,1525980.394796747,-4462986.6329734055,4279157.632193221,0.28771972614157143,-0.030171855063117425,0.14335198781649205,0.8507286492493807,-0.3521659971951341,0.04016904527680756,-0.38810607328947416,-0.49809523809523815,-1.119047619047619,9.288979966666668,-0.061086523819801536,0.03727795630618324,0.26137254097121604,nan,nan,nan
12.611793227999442,1525980.4154530056,-4462986.635139533,4279157.642484888,0.31068063800904683,0.0052561582643568805,0.20820712237259575,0.847921666554996,-0.3494900904897742,0.04284583557399541,-0.3962950403004784,0.4019047619047619,-0.429047619047619,10.178979966666668,-0.055632369907319255,0.04273211021866551,0.2537367254937409,nan,nan,nan
12.684788335999656,1525980.438104869,-4462986.634756304,4279157.657665363,0.34963985255931873,0.004315094415163201,0.20906545794550652,0.8441440201858148,-0.34814036727179026,0.044760103728455077,-0.40523535325950455,-0.12809523809523815,-1.349047619047619,9.868979966666668,-0.0054541539124822805,0.051458756478637166,0.26900835644869125,nan,nan,nan
12.756873395999719,1525980.4632029603,-4462986.634446555,4279157.672672645,0.4077881969380892,-0.04692419463201197,0.1772183519958917,0.8412413930318103,-0.3442337133647595,0.0460199027928286,-0.41436486136820316,-0.6280952380952382,-2.099047619047619,10.018979966666668,-0.06654067773228381,0.09945531090848123,0.2646450333187054,nan,nan,nan
12.83351561299969,1525980.4944603033,-4462986.6380433375,4279157.686256596,0.4033680219996588,-0.03717814118413726,0.20831704166924175,0.8370716071144166,-0.3429404496761955,0.0492777236067341,-0.4234084069213298,-0.43809523809523815,-0.689047619047619,9.948979966666668,-0.015271630954950382,0.018733833003743483,0.27446251036117353,nan,nan,nan
12.905021861999558,1525980.5234308948,-4462986.640713536,4279157.701218287,0.4054290602781081,0.03744714183214737,0.2814133685950612,0.8320964512953374,-0.3440856548320149,0.053211457932839885,-0.43172803844774194,0.4319047619047618,-0.059047619047619036,9.868979966666668,0.039269908169872414,-0.03253521377358994,0.28864331053362746,nan,nan,nan
12.989206622999518,1525980.1250112734,-4462986.404810229,4279157.799846378,-0.1529981848271767,0.2834926767708949,0.6102724287368244,0.8393400840892107,-0.3227580449752745,0.06685356935461265,-0.4322800810425425,0.1919047619047618,-1.049047619047619,9.988979966666667,0.006544984694978736,0.025278817698722218,0.2722808487961806,42.407261,-71.123464,65.0
13.062755792999269,1525980.112965227,-4462986.382489926,4279157.8478951175,-0.08989794738912765,0.2697055187222949,0.614058794887966,0.8340369739429413,-0.32373437042476955,0.0705059855782416,-0.4411431627671042,-0.24809523809523817,-2.1290476190476193,9.948979966666668,0.039269908169872414,-0.024899398296114757,0.27555334114366997,nan,nan,nan
13.136608367999543,1525980.106335325,-4462986.362599359,4279157.893181465,-0.05656210203269613,0.2870233790793742,0.6401474331471062,0.8298401953902106,-0.32198587093292236,0.07277347068544159,-0.4498826197525785,-0.07809523809523816,-1.509047619047619,9.888979966666668,-0.013089969389957472,0.03836878708867969,0.27119001801368414,nan,nan,nan
13.20800182899984,1525980.1022819814,-4462986.342030739,4279157.939055598,-0.051164478717381806,0.3028141761846655,0.6477875125677927,0.8257332798744408,-0.3202262435037123,0.07478463659159348,-0.4582869866861879,-0.4680952380952382,-1.339047619047619,9.638979966666668,-0.011999138607461017,0.04273211021866551,0.2679175256661948,nan,nan,nan
13.284986033999303,1525980.0983533955,-4462986.3187796185,4279157.988794967,-0.05538129178151174,0.3666107466790644,0.7068728547895646,0.8208949226982271,-0.3189836111825548,0.07722541778003662,-0.4673512780453806,0.11190476190476184,-0.699047619047619,9.768979966666668,0.0021816615649929124,0.028551310046211587,0.27555334114366997,nan,nan,nan
13.356950139999753,1525980.0943767517,-4462986.2924552,4279158.039551845,-0.0549418951129825,0.4174773410163102,0.7453097991420636,0.8160238215420821,-0.31804267308568046,0.079174708488432,-0.47611484629749395,-0.07809523809523816,-0.899047619047619,9.668979966666669,0.015271630954950384,0.035096294741190324,0.2831891566211452,nan,nan,nan
13.459790432999398,1525980.0900514687,-4462986.259589431,4279158.09822612,-0.01498142529254215,0.47282331861168403,0.8254526327246602,0.8101417012340537,-0.3178663797581976,0.08196495009444625,-0.48570890052969845,0.35190476190476183,-1.089047619047619,10.138979966666668,0.029452431127404314,0.010007186743771835,0.2930066336636133,nan,nan,nan
13.536531812999783,1525980.088540705,-4462986.211908767,4279158.181466789,-0.045139217043370594,0.523773331383814,0.9540229716101098,0.8036450812274887,-0.31464957278435834,0.08407414353972785,-0.4980780749142527,-0.12809523809523815,-0.34904761904761905,10.318979966666667,-0.01090830782496456,0.06454872586859464,0.2799166642736558,nan,nan,nan
13.908774572999391,1525980.0717242947,-4462986.016779392,4279158.536883713,0.04676230424656097,0.7758690694487571,1.241856832650241,0.7762078435354699,-0.31227216448574097,0.09715566813462766,-0.539025282920442,-0.035095238095238165,-0.9810476190476191,9.91797996666667,0.01963495408493621,0.006734694396282468,0.2733716795786771,nan,nan,nan
13.992079367999395,1525980.0726710933,-4462986.257415756,4279157.979998762,0.11604634762555656,0.15626223724424682,0.46850732263478134,0.7676235390436047,-0.34579522754031955,0.1101686872391296,-0.5282448521521623,-0.17809523809523817,-0.589047619047619,9.838979966666669,0.03490658503988659,-0.02708105986110767,0.2722808487961806,42.407263,-71.123464,65.0
14.06097067599967,1525980.0812828564,-4462986.2458195845,4279158.014766543,0.17834163042494444,0.1725026443616186,0.5020648880242682,0.7623411046917633,-0.34581090545622806,0.11450785771606169,-0.5349194414516141,0.23190476190476184,-1.239047619047619,10.118979966666668,0.007635815477475192,-0.0434435215985545,0.2537367254937409,nan,nan,nan
14.23815039999954,1525980.1128695626,-4462986.215267042,4279158.103689001,0.2711611138527643,0.19529197109399926,0.5443262863830816,0.7487940922718038,-0.34797833346752266,0.1249168450406459,-0.5501038712805473,-0.06809523809523815,-1.059047619047619,9.958979966666668,0.028361600344907856,-0.0608968141184978,0.2504642331462515,nan,nan,nan
14.309946428999865,1525980.1323636582,-4462986.201227269,4279158.142821266,0.3467690113357199,0.18807395012430678,0.504121726168637,0.7441908508931764,-0.34598441480457076,0.1273953065014445,-0.5569965875993989,-0.43809523809523815,-1.829047619047619,9.638979966666668,-0.01090830782496456,0.02964214082870804,0.2450100792337692,nan,nan,nan
14.388581319999503,1525980.1596415688,-4462986.186432797,4279158.1824770225,0.39786738078153905,0.18762249758763688,0.4658943064118295,0.7390590234761508,-0.34425405983464613,0.13022964033646525,-0.5641995599434831,-0.5180952380952382,-1.4190476190476191,9.548979966666668,-0.004363323129985823,0.017643002221247026,0.23955592532128692,nan,nan,nan
14.471433839999918,1525980.1885992484,-4462986.172777211,4279158.216385854,0.4107759157626485,0.23064022359790243,0.45699490078541344,0.7339269384486966,-0.3437929742391992,0.13341733352895535,-0.570401135652669,-0.058095238095238144,-0.769047619047619,9.328979966666669,0.011999138607461015,-0.017263582818639565,0.237374263756294,nan,nan,nan
14.547165635000056,1525980.2238205418,-4462986.153001351,4279158.255570117,0.43888117807436916,0.23825535640481305,0.4288249733846376,0.728601524920055,-0.34123189231397666,0.13611432592458347,-0.5780774207550681,-0.5080952380952382,-1.029047619047619,9.538979966666668,-0.013089969389957472,0.03291463317619741,0.2319201098438117,nan,nan,nan
14.618863583999882,1525980.255276615,-4462986.1359247975,4279158.286305429,0.5061705871678426,0.2445932165676969,0.4182893526559562,0.7232359546053676,-0.3413282177869039,0.13904889220877037,-0.5840292868005295,-0.26809523809523816,-1.539047619047619,9.788979966666668,0.028361600344907856,-0.024899398296114757,0.2351926021913011,nan,nan,nan
14.691740363999997,1525980.2922226517,-4462986.118071627,4279158.316836903,0.5935542931050383,0.27586781720585674,0.4515056487223732,0.7178673142089207,-0.3422955086434626,0.14347857669383987,-0.5889942296318671,0.4119047619047619,-1.529047619047619,10.058979966666667,0.017453292519943295,-0.07725927585594464,0.2221026328013436,nan,nan,nan
14.763344274999326,1525980.334673901,-4462986.098341446,4279158.349128774,0.621204919447305,0.2687318518641496,0.43681236700005416,0.7135430048188086,-0.34014736613491386,0.14543134261197552,-0.5949839281261701,-0.5680952380952382,-1.009047619047619,9.768979966666668,-0.009817477042468103,0.03618712552368678,0.21883014045385424,nan,nan,nan
14.840181276999829,1525980.3824616412,-4462986.077668577,4279158.382731657,0.6353265480462885,0.2811755032191432,0.44054931189629293,0.7085845931331273,-0.3387779246772522,0.14823082191641646,-0.6009700625792113,-0.3080952380952382,-0.719047619047619,9.738979966666667,-0.002181661564992912,0.0034622020487930995,0.2177393096713578,nan,nan,nan
14.91211421799926,1525980.4281605103,-4462986.057443699,4279158.414420251,0.6499069729018818,0.3120862293084465,0.4730363524934634,0.7032845205511866,-0.33922603599326634,0.15176003464508808,-0.6060408171886174,0.13190476190476186,-0.599047619047619,9.858979966666668,0.020725784867432664,-0.0510793370760297,0.2199209712363507,nan,nan,nan
14.996451763999175,1525980.030335015,-4462986.119982335,4279158.142172039,0.1490815392330891,-0.04254897146286846,0.14511953225707402,0.7020611401087709,-0.33940384807631746,0.17646068579549762,-0.6006469931544532,-0.9280952380952382,-1.739047619047619,9.818979966666667,-0.014180800172453928,0.00891635596127538,0.20028601715141447,42.407265,-71.123464,65.0
15.068640694999885,1525980.0419534117,-4462986.123298311,4279158.153481663,0.12758997404372113,-0.04067416609352531,0.133255864152043,0.6977611935666053,-0.33724229665373523,0.179483570344863,-0.6059559378644815,-0.25809523809523816,-0.6090476190476191,9.598979966666668,-0.02399827721492203,0.005643863613786011,0.1981043555864216,nan,nan,nan
15.14246393799931,1525980.0513374633,-4462986.126289834,4279158.163282433,0.09657483124854191,-0.05877567845902848,0.16656022288401534,0.6932285776659259,-0.3363039969108546,0.1821811384877759,-0.6108549697801445,-0.09809523809523818,-0.33904761904761904,10.188979966666668,0.003272492347489368,-0.01290025968865374,0.19701352480392512,nan,nan,nan
15.220415354999204,1525980.058867258,-4462986.130872486,4279158.176268883,0.09983076336514068,-0.07235276802301688,0.183796646031349,0.6881715223319913,-0.336123451123159,0.18505173420117182,-0.6157896050455937,-0.10809523809523819,-0.839047619047619,10.048979966666668,0.018544123302439753,-0.02926272142610058,0.1926502016739393,nan,nan,nan
15.294186599999193,1525980.0662152723,-4462986.136197991,4279158.189797182,0.10075996404320336,-0.08382003531548105,0.1892054964901428,0.6845947875382722,-0.33435427057106215,0.1872279062068451,-0.6200668595566644,-0.18809523809523818,-0.829047619047619,9.928979966666668,-0.015271630954950382,0.010007186743771835,0.16865192445901728,nan,nan,nan
15.370706654999594,1525980.0739428275,-4462986.142626377,4279158.204307864,0.03253592010408042,-0.06693071294134806,0.20063322054786964,0.6809873367324754,-0.3328285597716621,0.18922398183508599,-0.6242400838343762,-0.028095238095238173,0.060952380952380966,9.578979966666669,-0.007635815477475192,0.007825525178778924,0.1577436166340527,nan,nan,nan
15.458838347999517,1525980.0763815802,-4462986.147643215,4279158.219346468,-0.06552789163585017,-0.06155140560543465,0.23128118699430888,0.676770713002644,-0.3332101027506568,0.19090020321194265,-0.62809994620058,-0.028095238095238173,0.520952380952381,9.798979966666668,0.03599741582238305,-0.0238085675136183,0.15338029350406687,nan,nan,nan
15.533515265999995,1525980.070610608,-4462986.153063983,4279158.239715158,-0.14753339036119373,-0.07105574418328714,0.2756420474483491,0.6725978653579404,-0.3331325543825147,0.1928475961118058,-0.6320163114644775,-0.018095238095238164,0.200952380952381,10.048979966666668,0.01963495408493621,-0.017263582818639565,0.13483617020162714,nan,nan,nan
15.606287923999844,1525980.0598829272,-4462986.1582307005,4279158.259758078,-0.16008489509918156,-0.06882716507602743,0.30437133260638766,0.6698599278329214,-0.3327758795016602,0.1943408841249331,-0.6346491254384992,0.12190476190476185,-0.549047619047619,9.998979966666669,0.006544984694978736,-0.011809428906157283,0.11192872376920157,nan,nan,nan
15.97873946799973,1525980.0003322035,-4462986.183834038,4279158.372982583,-0.33921329381228216,-0.09988298768264697,0.37772087484222777,0.648366295342353,-0.32821625123974224,0.2058794790974657,-0.6553692700527401,-0.12809523809523815,-0.27904761904761904,9.888979966666668,0.004363323129985825,-0.011373096593158704,0.17345157990200166,nan,nan,nan
16.3554523899993,1525979.9461590978,-4462985.901287773,4279158.372413991,-0.5186100002353977,0.2598367931901498,0.4027749297847879,0.6248247774694172,-0.32068674959377585,0.21346514744686743,-0.6791072356244644,0.09190476190476182,-0.03904761904761904,9.498979966666669,0.004363323129985825,-0.011373096593158704,0.17345157990200166,42.407268,-71.123464,65.0
16.42674602199986,1525979.9062963994,-4462985.881315547,4279158.403373085,-0.4803589868693231,0.21172517599701973,0.40248639940005493,0.6249111420442528,-0.32063863942245374,0.21298082696018528,-0.6792025436954453,-0.7180952380952381,-1.109047619047619,10.288979966666668,0.007635815477475192,0.010007186743771835,-0.003699339175422764,nan,nan,nan
16.513248319000013,1525979.8694514404,-4462985.8650755985,4279158.434244986,-0.5133591700243884,0.21064900924075874,0.4010331067835594,0.6253245621981803,-0.31892867870805436,0.21205506249319045,-0.6799164219497422,-0.2880952380952382,-0.26904761904761904,9.698979966666668,-0.01090830782496456,0.053640418043630074,0.00611813786704534,nan,nan,nan
16.587665746999846,1525979.8262049258,-4462985.847330059,4279158.468028904,-0.5269767104946858,0.2085221552140713,0.36230508493355496,0.6256129801707411,-0.31772038087598387,0.21174624123171076,-0.6803129342434169,-0.6480952380952382,-0.589047619047619,9.438979966666668,-0.013089969389957472,0.028551310046211587,0.005027307084548884,nan,nan,nan
16.659172703999502,1525979.7885901171,-4462985.832446059,4279158.493889699,-0.557642993252486,0.2635033643508066,0.3539279198723328,0.6247829942882344,-0.31966632460557604,0.2120739325501871,-0.6800619814772998,0.14190476190476187,-0.39904761904761904,9.088979966666669,0.03381575425739013,-0.04998850629353324,0.002845645519555972,nan,nan,nan
16.729899398999805,1525979.7490860233,-4462985.813779167,4279158.518962374,-0.49792042646095824,0.26257040798605236,0.32700385251252767,0.6250474111408284,-0.31882840606858165,0.2118220082482837,-0.680290833899974,-0.5880952380952382,-1.559047619047619,9.658979966666669,-0.01090830782496456,0.02418798691622576,0.0017548147370595162,nan,nan,nan
16.804187623999496,1525979.7120745948,-4462985.79426178,4279158.543269229,-0.4952177545540458,0.1976374528974948,0.2795837836131948,0.6252026119311943,-0.31796707213584874,0.21138230322141105,-0.6806880030625794,-1.388095238095238,-0.689047619047619,9.928979966666668,-0.0054541539124822805,0.02746047926371513,0.005027307084548884,nan,nan,nan
16.87596811200001,1525979.6765179664,-4462985.780071413,4279158.563343341,-0.4585613704127133,0.2389666791903129,0.2780094652167612,0.6252850994284781,-0.3171928870224395,0.2105193355936279,-0.6812406525986596,0.05190476190476184,-1.279047619047619,9.448979966666668,0.0054541539124822805,0.035096294741190324,0.005027307084548884,nan,nan,nan
16.946114037999905,1525979.6444019838,-4462985.76333505,4279158.582814121,-0.45175431966246254,0.23709322318424364,0.2643929568752563,0.6255136662651113,-0.3160920569457625,0.2097919495791997,-0.681766678050399,-0.5180952380952382,-0.809047619047619,9.668979966666669,-0.004363323129985823,0.040550448653672605,0.005027307084548884,nan,nan,nan
17.01690914699975,1525979.612406398,-4462985.7465428775,4279158.601539803,-0.46739763337273466,0.19533567272543206,0.22892226354470702,0.6250683915691456,-0.3171875486751524,0.2108208658981233,-0.6813487564275117,-1.158095238095238,-0.45904761904761904,9.778979966666668,0.0010908307824964562,-0.04562518316354742,0.003936476302052429,nan,nan,nan
17.703246071999274,1525979.7959207667,-4462985.215616826,4279158.937166912,0.20078183860021992,0.6767721883962422,0.3603327428748281,0.6249918810896335,-0.3179456037942231,0.18470913813502243,-0.6886060386361184,-0.5020952380952381,-0.7200476190476192,9.649979966666669,0.0009817477042468104,0.011207100604517937,0.014299368735768758,42.407276,-71.123463,64.9
17.773620155999197,1525979.8132257634,-4462985.157287145,4279158.9682232905,0.22652195507792694,0.6612215141939211,0.3422070563642847,0.6254914014373559,-0.31707388164708916,0.18412786062980033,-0.6887100927108698,-0.9880952380952381,-0.6090476190476191,9.798979966666668,-0.006544984694978736,0.025278817698722218,-0.0069718315229121315,nan,nan,nan
17.849521193999863,1525979.8304516987,-4462985.107004341,4279158.994246537,0.1978453086429835,0.6757619605513125,0.3744412088505584,0.6256015312280445,-0.3172159604766654,0.18399356852899632,-0.6885805151474299,-0.2980952380952382,0.08095238095238096,9.878979966666668,0.003272492347489368,-0.0009011210811927245,-0.005881000740415676,nan,nan,nan
18.22462926099979,1525979.9046043751,-4462984.853727888,4279159.134587584,0.31134540493582946,0.7719164821149616,0.3600132599988852,0.6249240583494393,-0.31683593072833766,0.18334049805332117,-0.689544180329206,-0.5680952380952382,-0.658047619047619,9.638979966666666,0.003272492347489368,0.004553032831289556,0.005027307084548884,nan,nan,nan
18.30120068999986,1525979.9284549286,-4462984.794595378,4279159.162166329,0.24848873461009688,0.7634121336123282,0.3848124591404938,0.6244708371267254,-0.31721636087407845,0.1831257479874457,-0.6898368756110633,-0.5980952380952382,0.560952380952381,9.908979966666669,0.015271630954950384,-0.0030827826461856367,0.009390630214534708,nan,nan,nan
18.373389078999935,1525979.946473727,-4462984.73923766,4279159.190070444,0.19994572321761814,0.7573092838511042,0.3930612593471602,0.6245369738382586,-0.3165363105452832,0.18301570388205937,-0.6901185297502352,-0.7180952380952381,0.390952380952381,9.768979966666668,-0.008726646259971648,0.017643002221247026,0.00611813786704534,nan,nan,nan
18.562496843999725,1525979.9822659,-4462984.603672145,4279159.260432121,0.07059791371918142,0.7225993929015868,0.4600045645584322,0.6233598145794063,-0.3150062497571609,0.18372641046230398,-0.6916922804519623,-0.6380952380952382,0.49095238095238103,10.018979966666668,-0.008726646259971648,0.010007186743771835,0.025753091951981548,nan,nan,nan
18.63470127399978,1525979.9880669985,-4462984.544295456,4279159.29823114,0.05081205106377554,0.7409309826362429,0.48407666232841096,0.622773646729909,-0.31429587456846314,0.18425725342450897,-0.6924018726759579,-0.4080952380952382,-0.06904761904761904,9.788979966666668,-0.011999138607461017,0.006734694396282468,0.02793475351697446,nan,nan,nan
18.716910068999823,1525979.727692505,-4462984.489653606,4279159.64279832,-0.37825714335576877,0.8441564000520334,0.8498974686195799,0.6293222405970723,-0.30010380310477297,0.18666245139783025,-0.6921331914067019,-0.6180952380952381,-0.17904761904761904,9.898979966666667,-0.0010908307824964558,-0.0019919518636891806,0.03884306134193902,42.407285,-71.123461,64.9
18.787217363999844,1525979.699148176,-4462984.425951231,4279159.706933931,-0.43876753556137427,0.8561355145873336,0.88862671392963,0.6277733403807432,-0.29996779657421757,0.18682307350429334,-0.6935539588876726,-0.48809523809523814,0.260952380952381,9.878979966666668,0.014180800172453928,0.0034622020487930995,0.0541146922968894,nan,nan,nan
18.962883646999217,1525979.6221559553,-4462984.275721852,4279159.862864667,-0.6310993685870772,0.8431993520597388,0.956702956602332,0.6232887705628657,-0.3012039808477707,0.1894010488028845,-0.696358035554122,-0.7380952380952381,0.580952380952381,9.878979966666668,0.009817477042468103,-0.028171890643604126,0.061750507774364596,nan,nan,nan
19.033827874999588,1525979.577265823,-4462984.2157450365,4279159.930915,-0.6704465893944513,0.8471279763642512,0.9767127965928325,0.6212353486554855,-0.30126236527638783,0.19026984372048336,-0.6979290909371078,-0.6780952380952382,0.04095238095238096,9.818979966666667,0.009817477042468103,-0.013991090471150196,0.07484047716432207,nan,nan,nan
19.107154886999524,1525979.5282102954,-4462984.153762008,4279160.002379547,-0.7136000033779342,0.836692499882965,0.9992076282105764,0.6192111921516331,-0.3007787260901962,0.1907676823141601,-0.6997980775816239,-0.7980952380952382,0.12095238095238096,9.958979966666668,0.008726646259971648,0.005643863613786011,0.07702213872931497,nan,nan,nan
19.178529765999883,1525979.4771806714,-4462984.093930025,4279160.073833007,-0.7321155150543748,0.8402975896880043,1.0109142225208232,0.6173364605434623,-0.299917058109354,0.19153124118297732,-0.7016133101262755,-0.7680952380952382,-0.23904761904761906,9.788979966666668,-0.004363323129985823,0.00891635596127538,0.07920380029430789,nan,nan,nan
19.255447722999634,1525979.420864608,-4462984.029292339,4279160.151594929,-0.8064636646471532,0.8325129340516146,1.0610175540691982,0.6150681469636615,-0.2992273029008486,0.19245130161537377,-0.703645289085815,-0.5280952380952382,0.530952380952381,10.118979966666668,2.168404344971009e-19,0.0023713712662966433,0.08465795420679018,nan,nan,nan
19.327688734999356,1525979.3624836225,-4462983.969025613,4279160.228403412,-0.877400906210106,0.8287963722666726,1.0872728295093075,0.6126615725336494,-0.29866751870329156,0.19323113063122557,-0.7057657129132398,-0.6780952380952382,0.5109523809523809,9.868979966666668,0.006544984694978736,0.0023713712662966433,0.09229376968426536,nan,nan,nan
19.40598622199923,1525979.2938871114,-4462983.904229077,4279160.313408023,-0.9330120205207538,0.8286529906604311,1.1263393423047958,0.6101259626229225,-0.29786043655715405,0.19405667796997697,-0.7080730727540988,-0.5680952380952382,0.260952380952381,9.988979966666667,0.003272492347489368,0.006734694396282468,0.09229376968426536,nan,nan,nan
19.488433549999172,1525979.2261058127,-4462983.844029235,4279160.395234132,-0.9751059876739676,0.8279332927323317,1.1471638994456725,0.6075582598037887,-0.29746492783163336,0.19503859529810766,-0.7101742916743714,-0.7280952380952381,0.12095238095238096,9.858979966666668,0.006544984694978736,-0.005264444211178548,0.09556626203175472,nan,nan,nan
19.564955230999658,1525979.142642349,-4462983.773162907,4279160.493424764,-1.0204970998772847,0.7983154713855805,1.1574971562046605,0.6048388629565885,-0.2959816253880904,0.196036836808971,-0.7128354553897267,-1.0880952380952382,0.130952380952381,9.958979966666668,-0.006544984694978736,0.016552171438750568,0.09665709281425118,nan,nan,nan
19.63666155499959,1525979.0687347967,-4462983.715346434,4279160.577254283,-1.066225687405657,0.8040017969173194,1.202146783623702,0.6021926139149694,-0.29544919052460095,0.1971143066666628,-0.7149963511995545,-0.44809523809523816,0.19095238095238098,10.038979966666668,0.003272492347489368,-0.004173613428682092,0.09992958516174055,nan,nan,nan
19.709458044999337,1525978.991365019,-4462983.657004714,4279160.664487062,-1.1406045787744945,0.7992634594236727,1.2285456976858917,0.599675840016146,-0.2945789826733236,0.19777766758409335,-0.7172838382605706,-0.6780952380952382,0.590952380952381,9.868979966666668,0.0054541539124822805,0.011098017526268291,0.09774792359674764,nan,nan,nan
19.786438457999793,1525979.6596601398,-4462984.0666154185,4279160.027447861,-0.03786048438410128,0.08111615774915548,0.21899202409200758,0.5240416179399034,-0.33020939076772665,0.224652137597666,-0.7522456769867645,-0.5180952380952382,-0.17904761904761904,9.848979966666668,-0.007635815477475192,-0.0009011210811927245,0.09011210811927245,42.40729,-71.12346,64.8
19.859822634999546,1525979.6566596478,-4462984.060186859,4279160.04480326,-0.031914952777727434,0.06871824736509669,0.22625174589382224,0.5211737084022083,-0.33061365479225896,0.2260911976006873,-0.7536281230550138,-0.13809523809523816,0.24095238095238097,9.988979966666667,0.009817477042468103,-0.03144438299109349,0.08247629264179726,nan,nan,nan
19.93128309399981,1525979.6543911963,-4462984.055302503,4279160.060884785,-0.04299266536659496,0.05217383715612833,0.20536424557267158,0.5189744716767989,-0.33027339274294365,0.2270794449189127,-0.7549966291619534,-0.38809523809523816,0.49095238095238103,9.718979966666668,0.003272492347489368,-0.008536936558667916,0.07811296951181143,nan,nan,nan
20.00753395099946,1525979.6511130368,-4462984.051324286,4279160.07654366,-0.008877675698207549,0.0367898412320764,0.19109876901827288,0.5169826095524191,-0.3297262816999084,0.22813001602116473,-0.7562845079225461,-0.4280952380952382,-0.07904761904761903,9.928979966666668,-0.0032724923474893677,-0.004173613428682092,0.06938632325183978,nan,nan,nan
20.079855043999487,1525979.6504689504,-4462984.0486551365,4279160.090408115,-0.00735524994912734,0.02357055654358703,0.1823788003557303,0.5146208505451527,-0.32985403881359104,0.2290102362858694,-0.7575724424077062,-0.25809523809523816,0.310952380952381,9.848979966666668,0.01308996938995747,-0.018354413601136023,0.07484047716432207,nan,nan,nan
20.466050725999594,1525979.647717158,-4462984.039836772,4279160.158640815,-0.12763328421050818,-0.1475538273891615,0.13823410446343432,0.5017993073687178,-0.3268565170126477,0.23437950649334202,-0.765786210311543,-0.32809523809523816,0.740952380952381,9.948979966666668,0.00272707695624114,-0.0038463641939331557,0.08771228039778024,nan,nan,nan
20.538660431999233,1525979.636907386,-4462984.052333694,4279160.170348413,-0.10830294393563095,-0.11340881320144053,0.130194342356016,0.500792413611873,-0.3272194642754565,0.23524388012523761,-0.7660252594323782,0.10190476190476183,-0.07904761904761903,9.518979966666668,-0.002181661564992912,-0.020536075166128934,0.025753091951981548,nan,nan,nan
20.61306552699989,1525979.6288371822,-4462984.060784362,4279160.180049856,-0.09711846823651674,-0.13305499704346418,0.09686634091650326,0.5011386336676408,-0.32520752579268547,0.23563743546442453,-0.7665344966653627,-0.5280952380952382,0.260952380952381,9.718979966666668,-0.03490658503988659,0.04273211021866551,0.015935614909513444,nan,nan,nan
20.68377126499945,1525979.6219901768,-4462984.07016495,4279160.186879086,-0.08516304044074743,-0.13534251346851012,0.10122341480746999,0.501026924083071,-0.32415551912145557,0.23611685430257126,-0.7669055042428345,-0.04809523809523819,0.11095238095238096,9.908979966666669,-0.02181661564992912,0.018733833003743483,0.019208107257002813,nan,nan,nan
20.759364480999466,1525979.615541805,-4462984.080412809,4279160.194543517,-0.12865499930061516,-0.1562006548481819,0.09438717841616895,0.5012383626428435,-0.32246341037030823,0.23632088528287817,-0.7674176780106969,-0.10809523809523819,0.8809523809523809,9.778979966666668,-0.025089107997418487,0.03727795630618324,0.014844784127016989,nan,nan,nan
20.835189563999847,1525979.7672765292,-4462983.356877314,4279160.624142762,0.1501604699291241,0.8019906526275278,0.905352578277371,0.510651333340102,-0.3059311672861839,0.19411911474249421,-0.7797173247332785,-0.5280952380952382,0.590952380952381,10.118979966666668,0.009817477042468103,0.020915494568736395,0.02248059960449218,42.407298,-71.123456,64.7
20.909848023999984,1525979.7793341698,-4462983.292478774,4279160.6968410965,0.18119550750568658,0.766201003023501,1.0093232600487951,0.5096957219052335,-0.3070579739866024,0.19373123112547305,-0.7799960784043058,-0.39809523809523817,0.520952380952381,11.078979966666669,0.030543261909900768,-0.019445244383632477,0.013753953344520533,nan,nan,nan
20.980050782000035,1525979.7920628684,-4462983.238654362,4279160.767744463,0.09261247600140488,0.731752383408635,1.024632048763836,0.5092212363997358,-0.3079683144629919,0.19376409598945352,-0.7799389241142407,-0.6580952380952382,2.0609523809523806,9.848979966666668,0.01636246173744684,-0.0238085675136183,0.005027307084548884,nan,nan,nan
21.053187092999906,1525979.7988387307,-4462983.185116722,4279160.842710234,0.17535410080937203,0.8582747917733343,1.0775279588854128,0.5073856437276953,-0.3098483693533353,0.1922406840931389,-0.7807671333273799,0.5019047619047619,-1.009047619047619,9.528979966666668,0.07853981633974483,-0.02162690594862539,0.02793475351697446,nan,nan,nan
21.45706863599935,1525979.8643799112,-4462982.864323865,4279161.245452196,-0.014133228765297268,1.018940051921879,1.0623490200997168,0.5028577067016393,-0.3092104463311031,0.19291397077245423,-0.7837775367590181,-0.39809523809523817,1.0609523809523809,9.298979966666668,0.006108652381980153,0.0011714574055505412,0.028916501221221275,nan,nan,nan
21.525933902999896,1525979.8629826098,-4462982.763584926,4279161.350482823,0.0936681876064904,0.9977784566267733,1.1045544318101108,0.5041212762771731,-0.306013105628283,0.19359945390518396,-0.7840516373254781,-0.9880952380952381,-0.08904761904761904,10.498979966666669,-0.050178215994836975,0.05036792569614071,-0.0004268468279333958,nan,nan,nan
21.596936045999428,1525979.8696403312,-4462982.692665105,4279161.428992038,0.1698814984805805,0.9932120934400813,1.1081600378724146,0.5050568584720939,-0.30472444782741254,0.19538857233641205,-0.7835074262338919,-1.1880952380952383,-0.18904761904761902,10.118979966666668,-0.06872233929727672,0.0034622020487930995,-0.005881000740415676,nan,nan,nan
21.975169116999496,1525979.8804441749,-4462982.145104235,4279161.577279178,0.09906849644434086,1.261786923236775,1.0697509591388619,0.5041779060704352,-0.30470423037458944,0.19542998046442617,-0.7840708477648405,-0.20809523809523817,0.680952380952381,9.628979966666668,-0.006763150851478024,0.008807272883025736,0.013863036422770179,42.407311,-71.12345,64.5
22.04623092499969,1525979.888067681,-4462982.048007369,4279161.659598517,0.24065819750302087,1.3292874116628748,1.0833943093199185,0.5054587462600615,-0.30179508301531094,0.19574237004982364,-0.7842933818546522,-0.7080952380952381,-1.319047619047619,9.848979966666668,-0.05345070834232634,0.06345789508609818,-0.005881000740415676,nan,nan,nan
22.118042494999827,1525979.905382633,-4462981.952367379,4279161.737546912,0.2586790504061939,1.3394231011042785,1.1268553617768284,0.5050664562322805,-0.3021154506387827,0.19611132555567082,-0.7843305921738803,-0.4780952380952382,0.390952380952381,10.168979966666669,2.168404344971009e-19,-0.013991090471150196,0.010481460997031164,nan,nan,nan
22.1889487669996,1525979.92366031,-4462981.85772677,4279161.817167966,0.28793789676998355,1.337782119194033,1.142232301346018,0.5048507659152793,-0.30172399427118873,0.19597622667980458,-0.7846538437864702,-0.8880952380952382,0.310952380952381,10.028979966666668,0.0010908307824964562,0.012188848308764747,0.010481460997031164,nan,nan,nan
22.26508696199926,1525979.945672651,-4462981.755455702,4279161.904489597,0.36037270309492975,1.3946346616247858,1.12310294171669,0.5039721194718217,-0.3030963327266043,0.19598563281949685,-0.7846874206764409,-0.8580952380952382,-0.489047619047619,9.358979966666668,0.025089107997418487,-0.03253521377358994,0.01157229177952762,nan,nan,nan
22.648879569999735,1525980.0803305502,-4462981.234332508,4279162.324151468,0.5269719394598839,1.5320933205659506,1.221682627386724,0.5013061339128704,-0.3064189492786106,0.19882708002494118,-0.7843898140783191,-0.5870952380952382,0.14095238095238097,9.832979966666668,0.0010908307824964562,-0.024899398296114757,0.01157229177952762,nan,nan,nan
22.725228714999503,1525980.1256115069,-4462981.102684795,4279162.4291266175,0.6131086296346817,1.5380098009739085,1.1657458959457938,0.5005162260679962,-0.3080888730734627,0.19935686403492103,-0.7841056019758288,-1.4880952380952381,-0.22904761904761906,9.508979966666669,0.014180800172453928,-0.042352690816058046,0.007208968649541797,nan,nan,nan
22.796774337999523,1525980.1697970822,-4462980.991843347,4279162.513139712,0.6348693647503171,1.5868260592746517,1.171198943170823,0.5004940091869963,-0.30815428892296676,0.19992157696194143,-0.783950281974628,-0.33809523809523817,0.16095238095238096,9.468979966666668,-0.011999138607461017,-0.010718598123660827,0.002845645519555972,nan,nan,nan
22.869942230999186,1525980.2160226025,-4462980.876304838,4279162.598415964,0.7241026031389967,1.6078847169324375,1.1175541970578586,0.5007372562079734,-0.30663749526669176,0.19974336720733832,-0.7844349779014798,-1.428095238095238,-0.5190476190476191,9.378979966666668,-0.016362461737446838,0.040550448653672605,0.008299799432038252,nan,nan,nan
22.941234445999726,1525980.2679757492,-4462980.760941807,4279162.678598602,0.7799359386846173,1.6631101974644462,1.1184672413749555,0.5008314000923708,-0.30679259815208554,0.20057135571484688,-0.7841028900750574,-0.48809523809523814,-0.32904761904761903,9.498979966666669,-0.01854412330243975,-0.017263582818639565,-0.0004268468279333958,nan,nan,nan
23.022506068999974,1525979.7026578586,-4462981.592109096,4279162.113143765,-0.12363737062255009,0.3064520681177276,0.18016437293167964,0.5434577180351848,-0.3256112948476924,0.24154931369408786,-0.7350407628058829,0.13190476190476186,-0.00904761904761904,9.568979966666667,-0.0272707695624114,0.05254958726113362,-0.0004268468279333958,42.407318,-71.12345,64.5
23.09240262899948,1525979.6933693816,-4462981.56908634,4279162.126678934,0.016030855516887266,0.26535012020670334,0.08040820321243486,0.543514908187302,-0.32500947151777704,0.24184784181025315,-0.7351666545555146,-1.658095238095238,-1.859047619047619,9.698979966666668,-0.014180800172453928,0.00891635596127538,0.007208968649541797,nan,nan,nan
23.26860297499934,1525979.696197825,-4462981.522268639,4279162.140865954,-0.0298658145930632,0.12332637321662199,0.04466965598818268,0.5453493251457767,-0.31962077391868876,0.2394768828171528,-0.7369447045712347,-0.5780952380952382,0.23095238095238096,10.178979966666668,-0.015271630954950382,0.07109371056357337,0.0017548147370595162,nan,nan,nan
23.6520261379992,1525979.6850447736,-4462981.476213797,4279162.157547332,-0.0010674885813590218,-0.027231276437855834,-0.1814735602474174,0.5534592041340526,-0.30283096454644404,0.23436883773667555,-0.7396266387346199,-0.8070952380952381,-0.234047619047619,9.685979966666668,-0.039269908169872414,0.09618281856099185,-0.011335154652897955,nan,nan,nan
23.72805171299933,1525979.6849528821,-4462981.478557918,4279162.141925736,0.05205642812703176,-0.018627222064487747,-0.15516342114214438,0.5528492397465099,-0.30404211604574405,0.2345451024924783,-0.7395300570197709,-0.2780952380952382,-1.049047619047619,10.048979966666668,0.01636246173744684,-0.02708105986110767,0.003936476302052429,nan,nan,nan
23.799911114999304,1525979.6886946214,-4462981.4798968155,4279162.130772818,0.026977174894331657,-0.019331518804595882,-0.18346712920356434,0.5535008365922957,-0.3027238622737836,0.2340018772738379,-0.7397555062929455,-0.6280952380952382,-0.06904761904761904,9.448979966666668,-0.013089969389957472,0.04164127943616906,-0.005881000740415676,nan,nan,nan
23.870958380999582,1525979.6906091864,-4462981.48126877,4279162.117752191,-0.004180742551043004,-0.00952596108315068,-0.17129005405654218,0.554107117541378,-0.30171891989378824,0.23360579829055314,-0.7398373653918034,-0.13809523809523816,-0.03904761904761904,9.728979966666667,-0.011999138607461017,0.03182380239370096,-0.008062662305408587,nan,nan,nan
23.94285748999937,1525979.690308662,-4462981.481953525,4279162.105439336,-0.035613579956651376,-0.056112497958865304,-0.1746387219866391,0.5538700224759028,-0.30232554799764855,0.23351075151133668,-0.7397972632524503,-0.8480952380952382,0.17095238095238097,10.108979966666668,0.01308996938995747,-0.01290025968865374,-0.0004268468279333958,nan,nan,nan
24.027059290999205,1525978.9288259693,-4462980.860388363,4279163.018429228,-1.2496360095188197,1.0458575134931267,1.4085621497946903,0.5254515964029706,-0.21677756334170206,0.2431886141494632,-0.7859818104600181,1.2219047619047618,-0.9890476190476191,9.458979966666668,0.03381575425739013,-0.0510793370760297,0.003936476302052429,42.40733,-71.123456,64.4
24.099513753999418,1525978.8315293046,-4462980.778957892,4279163.128099883,-1.3310976004394424,1.0715497577360944,1.4889021540621585,0.5259991942240955,-0.21556962331148194,0.2433416188731032,-0.7859004022533045,-0.5980952380952382,-0.23904761904761906,10.108979966666668,-0.022907446432425572,0.025278817698722218,-0.003699339175422764,nan,nan,nan
24.1730872979997,1525978.7345818763,-4462980.700914034,4279163.236540643,-1.4510579529496261,1.1609373485886134,1.5860448162661624,0.5237889575028951,-0.21956433426058164,0.24288943363110685,-0.7864104238283204,0.4219047619047618,-0.03904761904761904,9.748979966666669,0.08399397025222712,-0.09144007602839857,0.025753091951981548,nan,nan,nan
24.245828581999376,1525978.6280353938,-4462980.615670167,4279163.352998773,-1.4719862712204483,1.2542451510800832,1.6873221773712825,0.5235282297827962,-0.2203605472323822,0.24352094720608225,-0.7861659943501305,0.06190476190476185,-1.269047619047619,9.878979966666668,-0.002181661564992912,-0.02926272142610058,0.0006639839545630601,nan,nan,nan
24.3221946019994,1525978.5158983977,-4462980.52012085,4279163.481540216,-1.523362026581017,1.2998410744072315,1.7597110002571714,0.5242078971957153,-0.21983664739998612,0.2436675099532898,-0.7858142745760501,-0.5180952380952382,-0.6190476190476191,9.918979966666669,-0.016362461737446838,0.011098017526268291,-0.014607647000387323,nan,nan,nan
24.705609973999344,1525977.946781325,-4462980.034509594,4279164.138955561,-1.9055961103696475,1.5965644198021385,2.160743187674943,0.5397810932383452,-0.19273372214655998,0.24753901486206248,-0.7811622881372403,-0.18809523809523818,-0.391047619047619,9.862979966666668,-0.11671889372712078,0.11799943421092098,-0.038605924215309353,nan,nan,nan
24.781829042000027,1525977.7824137874,-4462979.89679764,4279164.325330856,-1.9539813518631326,1.7304075510422656,2.3333523738163873,0.5388879021791992,-0.19729769493700422,0.2491972969671808,-0.7801116306006706,0.3219047619047618,-1.649047619047619,10.128979966666668,0.025089107997418487,-0.11325669167832769,-0.015698477782883778,nan,nan,nan
24.85402897199947,1525977.6420417484,-4462979.772486917,4279164.492956525,-1.9724219949085515,1.8536252885897468,2.4560889202990186,0.5384211777797429,-0.20024039032156,0.25057054906180337,-0.7792437499920997,0.27190476190476187,-1.909047619047619,9.808979966666667,0.01090830782496456,-0.09253090681089503,-0.015698477782883778,nan,nan,nan
24.927049703999728,1525977.4978422092,-4462979.63697235,4279164.672515915,-1.983356085833879,1.959323106196082,2.654881591945626,0.5383253101013686,-0.2014081028693355,0.252369787527421,-0.7784279847891803,0.6919047619047619,-2.099047619047619,10.778979966666668,-0.02617993877991494,-0.05653349098851198,-0.008062662305408587,nan,nan,nan
24.998972686999878,1525977.3552947203,-4462979.496152156,4279164.86332719,-2.028215180956984,1.9741770211459897,2.7233042958618907,0.5402497208859454,-0.19815739718081196,0.25192762333732976,-0.7780722062774944,-1.0480952380952382,-0.9990476190476191,10.108979966666668,-0.05235987755982988,0.08854700308351666,-0.02660678560784834,nan,nan,nan
25.080903158999718,1525978.0977343228,-4462980.257815023,4279163.813253652,-0.5404145613160032,0.4607849749317925,0.9760151552981151,0.5605556612336817,-0.29272957090645924,0.2611659185714457,-0.7293004267853284,-1.6680952380952383,-1.4290476190476191,9.258979966666669,-0.0272707695624114,0.02418798691622576,-0.038605924215309353,42.40734,-71.123463,64.3
25.4660722969993,1525977.8947115587,-4462980.084707475,4279164.179922704,-0.3822353586484786,0.6952967727861368,1.2078786319194208,0.5626352205146584,-0.2934581208834397,0.26361731201209926,-0.7265189971970704,0.5119047619047619,-1.599047619047619,9.788979966666668,-0.014398966328953215,-0.011591262749657993,-0.013516816217890868,nan,nan,nan
25.538704252999196,1525977.8611818573,-4462980.023716014,4279164.285877867,-0.455751220309345,0.6408188828237725,1.1418389749642603,0.5634664206825897,-0.2922335149315122,0.2631935894824316,-0.7265220578385883,-1.0080952380952382,-0.06904761904761904,9.558979966666667,-0.014180800172453928,0.030732971611204498,-0.009153493087905043,nan,nan,nan
25.610928306999995,1525977.8282540732,-4462979.97741719,4279164.368375127,-0.31036231855933916,0.672577178011173,1.066818200340903,0.5650550054212203,-0.29129352545449994,0.2649236625196225,-0.7250354311829468,-1.0880952380952382,-3.079047619047619,8.968979966666668,-0.07308566242726255,-0.008536936558667916,-0.03424260108532353,nan,nan,nan
25.68523411499973,1525977.8052325794,-4462979.927527978,4279164.447507635,-0.4532480282886869,0.6154542602904498,1.0335869155796333,0.5669665020354938,-0.28947237267677667,0.2666383425355798,-0.7236426783110098,-0.6980952380952381,0.940952380952381,9.738979966666667,-0.08617563181722002,0.012188848308764747,-0.032060939520330616,nan,nan,nan
25.757067475999975,1525977.7725491587,-4462979.883147972,4279164.522038915,-0.41342476518576265,0.5779736814485038,1.2086162843303494,0.5700083050703231,-0.28322035172988375,0.26372206156018047,-0.7247947566863642,1.0619047619047617,-1.759047619047619,11.838979966666669,-0.055632369907319255,0.20308423524564453,-0.020061800912869604,nan,nan,nan
25.829627475999587,1525977.7424984341,-4462979.8411366325,4279164.609889954,-0.4826862384725891,0.46582621815837194,1.0526591782614902,0.5723227210679763,-0.2766647928691835,0.26019077917887984,-0.7267764816799078,-2.7680952380952384,0.15095238095238095,9.198979966666668,-0.03599741582238305,0.2183558662005949,0.005027307084548884,nan,nan,nan
25.90162337199945,1525977.7077860616,-4462979.807636748,4279164.685591921,-0.6211815229484599,0.48525792576724447,0.987919677199351,0.5747282663259031,-0.2721496063956365,0.2564519151627224,-0.7279110023834182,-0.6080952380952381,0.6209523809523809,8.678979966666668,-0.006544984694978736,0.17690429646572958,-0.02660678560784834,nan,nan,nan
25.9783399199996,1525977.660204016,-4462979.77046635,4279164.7612658385,-0.7738875225811406,0.5671751657450255,0.9501645923515757,0.574527716442737,-0.2765213933985363,0.2554993030455971,-0.7267557558987605,0.13190476190476186,0.49095238095238103,8.408979966666667,0.07744898555724837,-0.0783501066384411,-0.049514232040273914,nan,nan,nan
26.050588306999998,1525977.6043309388,-4462979.729517478,4279164.8298657555,-0.7302577026066497,0.6999773103258753,1.0529393230149264,0.5730147158375748,-0.2836515482043256,0.2563482421691709,-0.7249010373343299,1.5619047619047617,-2.259047619047619,9.528979966666668,0.09490227807719168,-0.18197903097560442,-0.042969247345295176,nan,nan,nan
26.134573950999766,1525976.2269764985,-4462980.316104715,4279164.204044545,-2.5859056206773174,-0.3942573460797705,0.11323601090234492,0.556746671290217,-0.27442664848033044,0.34730525853312594,-0.7029240475066236,-0.7180952380952381,-1.709047619047619,7.768979966666668,0.05672320068981571,-0.31506038644017204,-0.16950561811488407,42.407346,-71.123485,64.1
26.207104242999776,1525976.0249601805,-4462980.346904918,4279164.212890778,-2.6108033360664384,-0.3975316095667123,0.06560476738826515,0.5534473255772775,-0.283444881369631,0.3536815492841763,-0.6987591997887391,0.09190476190476182,-2.1090476190476193,9.118979966666668,2.168404344971009e-19,-0.3117878940926827,-0.03533343186781999,nan,nan,nan
26.27962132799985,1525975.8354074855,-4462980.375766987,4279164.217653894,-2.960863095393715,-0.4999448816949325,-0.13394518610785905,0.5524389072337,-0.285531529230062,0.35638444731696317,-0.6973328658949752,-1.1280952380952383,2.8509523809523807,8.938979966666668,-0.02617993877991494,-0.10234838385336313,-0.001517677610429852,nan,nan,nan
26.351529977999235,1525975.6224007057,-4462980.411733408,4279164.208017774,-3.281593691232483,-0.8420458561021776,-0.21971977435400025,0.5540534941053905,-0.2802875625132117,0.35406887097583484,-0.6993560203019971,-1.808095238095238,2.650952380952381,12.578979966666669,-0.028361600344907853,0.1692684809882544,0.033388907429456736,nan,nan,nan
26.455991957999686,1525975.3642817067,-4462980.477965872,4279164.190735363,-3.123457052313553,-0.8510516664039821,-0.009427287704808718,0.5564577842435966,-0.28017954324112626,0.3541435903221556,-0.6974499809264986,2.2719047619047616,-5.009047619047619,11.108979966666668,-0.0370882466048795,0.00891635596127538,-0.06805835534271366,nan,nan,nan
26.530938740999773,1525975.0502022048,-4462980.563543448,4279164.189787402,-3.241830890342763,-0.9331076522087857,-0.326902396764287,0.5591858204002199,-0.2774753711864064,0.34810351542500234,-0.699387288813425,-1.9780952380952384,-0.769047619047619,8.218979966666668,0.05235987755982989,0.1343618959483678,-0.030970108737834165,nan,nan,nan
26.602761643999656,1525974.8179571903,-4462980.630391352,4279164.166368089,-3.1562545738284693,-0.9757216259368113,-0.4174811240057053,0.558736571332289,-0.2785454487297234,0.3473853827840614,-0.6996779782389217,-1.0080952380952382,-3.409047619047619,9.158979966666669,0.037088246604879506,-0.011809428906157283,-0.002608508392926308,nan,nan,nan
26.68155952899997,1525974.5691337031,-4462980.707312415,4279164.133455943,-3.0879593054566543,-0.9870478207415385,-0.44786467953895387,0.5586616344570501,-0.2816639404332371,0.34755539945948394,-0.6984037855772953,0.021904761904761816,-3.279047619047619,9.338979966666669,0.030543261909900768,-0.06744179881347653,-0.042969247345295176,nan,nan,nan
26.75496620499962,1525974.3426893642,-4462980.779694001,4279164.100613405,-3.5107106493565876,-1.1905032831962616,-0.6227140758341907,0.555564307608142,-0.2858826590981137,0.3444927475645076,-0.7006740702859445,-1.578095238095238,3.9109523809523807,10.218979966666668,0.1679879405044542,-0.04562518316354742,0.03011641508196737,nan,nan,nan
26.831155814999875,1525974.0750647318,-4462980.870447138,4279164.05314335,-3.511226880889681,-1.2816659700836537,-0.5863587509903131,0.5570776996390404,-0.2852652469303951,0.34695199019350653,-0.698507331755451,0.36190476190476184,-2.279047619047619,10.728979966666667,-0.08508480103472356,-0.02708105986110767,-0.03533343186781999,nan,nan,nan
26.90342386699922,1525973.8212891622,-4462980.963080147,4279164.010763996,-3.6435409152612492,-1.4192121449854809,-0.6948599356980045,0.5575639268929756,-0.2841864415976472,0.34675932883838956,-0.6986547804603073,-1.178095238095238,-0.13904761904761903,10.078979966666669,-0.015271630954950382,0.02964214082870804,0.0017548147370595162,nan,nan,nan
26.98097392499949,1525973.5391940041,-4462981.072960312,4279163.956965609,-3.691108103533574,-1.5002723904393718,-0.8232416525539629,0.5587788278492667,-0.2830498928364625,0.34713198590525235,-0.697960145445914,-1.0880952380952382,-1.4290476190476191,9.308979966666667,-0.038179077387375956,0.020915494568736395,-0.018970970130373147,nan,nan,nan
27.051390465999248,1525973.2777984024,-4462981.179206077,4279163.898665571,-3.827554071266364,-1.5336911414771661,-0.8796373324757435,0.5583372361762355,-0.2839502748217659,0.34616462840553675,-0.6984281084874249,0.1919047619047618,-0.39904761904761904,9.348979966666668,0.04145156973486533,-0.0030827826461856367,-0.0004268468279333958,nan,nan,nan
27.135357692999605,1525974.5587532741,-4462980.142134236,4279164.722362814,-1.4401243574591858,0.052212035205860374,0.6104275248556307,0.5432189635784062,-0.2991568838926618,0.22879107718392477,-0.7503818761045561,-0.20809523809523817,-0.849047619047619,9.798979966666668,0.025089107997418487,0.006734694396282468,-0.004790169957919219,42.407354,-71.123503,64.0
27.206191592999858,1525974.4488682128,-4462980.138150329,4279164.768939948,-1.3504333327079756,0.11816212217010086,0.6730229458343866,0.5432107740822395,-0.3002392540588277,0.2293942626277135,-0.7497711104553174,0.3119047619047618,-1.659047619047619,10.028979966666668,2.168404344971009e-19,-0.03471687533858286,-0.010244323870401499,nan,nan,nan
27.588879951999843,1525973.9458983024,-4462980.094140758,4279165.01960785,-1.4619646312634575,-0.03297076846886354,0.8045332013186643,0.5436137291097419,-0.30288035850210804,0.22572123471996763,-0.7495315381691868,-0.5080952380952382,0.14095238095238094,10.248979966666669,0.021598449493429824,0.00018970970130373216,-0.0114442377311476,nan,nan,nan
27.65816895199987,1525973.8297376803,-4462980.0967604555,4279165.083532158,-1.3958324026665194,-0.04897354906150869,0.7471777323185504,0.5444617768344798,-0.30088510862045703,0.22524781604774868,-0.7498619518945842,-1.3780952380952383,-0.909047619047619,9.578979966666669,-0.022907446432425572,0.051458756478637166,-0.003699339175422764,nan,nan,nan
27.734808877999967,1525973.7227697964,-4462980.1005134825,4279165.140791196,-1.353792421292284,-0.01295664795328294,0.8203127405306563,0.5449922064824817,-0.2999670008376624,0.22505221572036851,-0.7499031897771242,0.27190476190476187,-0.8790476190476191,10.268979966666668,-0.013089969389957472,0.02418798691622576,-0.005881000740415676,nan,nan,nan
27.80612100899998,1525973.6258092162,-4462980.101441456,4279165.199543186,-1.2912151502209612,-0.020479690435264042,0.789194111232564,0.5458642754815997,-0.29797296420640357,0.2246438673592425,-0.7501862693822247,-1.178095238095238,-1.009047619047619,9.718979966666668,-0.0272707695624114,0.05582207960862299,-0.004790169957919219,nan,nan,nan
27.984491645999697,1525973.3954488875,-4462980.105095153,4279165.340340028,-1.202597296517721,-0.015513405402291902,0.7044794538133319,0.5455102738357986,-0.29928051874132733,0.223436390508268,-0.7502838744068071,-1.0680952380952382,-0.709047619047619,9.518979966666668,0.01963495408493621,-0.004173613428682092,-0.003699339175422764,nan,nan,nan
28.056894443999226,1525973.3083655545,-4462980.106218521,4279165.391353296,-1.1641715233334045,0.0449044954002657,0.7879599729325857,0.5441470506944539,-0.3035715299179647,0.22462017196765036,-0.7491956302233453,0.6119047619047618,-0.969047619047619,10.168979966666669,0.044724062082354694,-0.12416499950329225,-0.004790169957919219,nan,nan,nan
28.34123783599989,1525972.5520124398,-4462980.04841037,4279165.418635142,-1.2436105967462385,0.10784374237714996,0.5701698169935099,0.5689338803884058,-0.29785873315677,0.22629937345642795,-0.732381737182463,-0.8080952380952382,-1.889047619047619,9.468979966666668,-0.015271630954950382,0.011098017526268291,-0.010244323870401499,42.407363,-71.123526,63.9
28.41017230899979,1525972.4597648517,-4462980.04041082,4279165.46092876,-1.1850749615471043,0.09799098103663802,0.5307072080041226,0.5698485571510874,-0.29668292726215606,0.22657513579025776,-0.7320625458130933,-1.2080952380952383,-1.239047619047619,9.618979966666668,-0.032724923474893676,0.02200632535123285,-0.013516816217890868,nan,nan,nan
28.49598442399929,1525972.3695642184,-4462980.032952349,4279165.501322935,-1.1652791646693954,0.1456645435420414,0.612282467402311,0.5696516938088992,-0.29762389148659096,0.2270470961951996,-0.7316874904104188,0.5119047619047619,-0.929047619047619,10.168979966666669,0.004363323129985825,-0.02926272142610058,-0.003699339175422764,nan,nan,nan
28.566862821999166,1525972.2757104193,-4462980.021220249,4279165.550637329,-0.9838907103136679,0.11398431528543052,0.5043379876109768,0.5701483956825516,-0.2964594729598547,0.22693893569376145,-0.7318068787705535,-2.198095238095238,-2.619047619047619,9.468979966666668,-0.017453292519943295,0.026369648481218675,-0.001517677610429852,nan,nan,nan
28.63994542599994,1525972.2037331387,-4462980.012881639,4279165.587532562,-0.9504496856357099,0.1947757117868546,0.5793908912294328,0.5689873759708453,-0.29982072960366835,0.22863202417121747,-0.7308134468972549,0.7819047619047618,-1.249047619047619,9.848979966666668,0.021816615649929122,-0.10889336854834186,0.0006639839545630601,nan,nan,nan
28.71141759299917,1525972.1358514263,-4462979.998970636,4279165.628913023,-0.9202273262104965,0.2102377060005069,0.5639427976654345,0.5696040094862586,-0.29807854607250794,0.22815695835198535,-0.7311941299414182,-0.6180952380952381,-0.9890476190476191,9.548979966666668,-0.02072578486743266,0.05036792569614071,0.0006639839545630601,nan,nan,nan
28.888469988999532,1525971.9729540679,-4462979.961754651,4279165.728741391,-0.641844860585385,0.25534173466398297,0.44857119246704147,0.5690215951196324,-0.29773794408407,0.22565675324849202,-0.7325609675721119,-1.1280952380952383,-2.1290476190476193,9.408979966666669,0.023998277214922033,0.02200632535123285,0.00611813786704534,nan,nan,nan
28.960492758999862,1525971.9268407065,-4462979.943409617,4279165.760969,-0.5491178458309146,0.2552210864735929,0.4161428946077685,0.5695335996008892,-0.2969662908944358,0.22563051965263933,-0.7324843821925998,-1.158095238095238,-1.749047619047619,9.678979966666668,-0.016362461737446838,0.018733833003743483,-0.0069718315229121315,nan,nan,nan
29.335190216999763,1525971.7212092022,-4462979.8478354225,4279165.916804564,-0.3708079771418441,0.08709533778170497,0.32987272511499416,0.5694930443338939,-0.29883638946733454,0.2264998184161494,-0.7314863755393067,-1.1880952380952383,-0.8590476190476191,9.988979966666667,0.0011999138607461037,-0.011591262749657997,-0.003699339175422764,nan,nan,nan
29.41354082699945,1525970.389667026,-4462980.019717878,4279165.956546697,-2.1413834847187307,-0.36788504530357374,0.5799778838244899,0.6139288218016286,-0.26236569805955845,0.25165121021224585,-0.7006620520610747,-0.6180952380952381,-1.729047619047619,10.238979966666667,-0.013089969389957472,0.08636534151852375,-0.004790169957919219,42.407371,-71.123551,63.7
29.499769426000057,1525970.215057304,-4462980.04971545,4279166.003838449,-2.1507787135873113,-0.3397243873368722,0.6470637848667742,0.6137473446041308,-0.26371478441554896,0.25287483355347146,-0.6998735804301247,0.05190476190476184,-1.659047619047619,9.988979966666667,-0.004363323129985823,-0.047806844728540326,-0.009153493087905043,nan,nan,nan
29.572810198999832,1525970.0366402278,-4462980.077897165,4279166.057515393,-2.072585462927655,-0.33486166097270703,0.5800126673036834,0.6139136606765064,-0.26317851232518774,0.25328161057009724,-0.6997824763373468,-1.3380952380952382,-2.6290476190476193,9.048979966666668,-0.016362461737446838,0.0034622020487930995,0.0017548147370595162,nan,nan,nan
29.648685904999184,1525969.8789855803,-4462980.103368972,4279166.101635017,-2.1653579899015627,-0.40184941768789967,0.6027240103911035,0.6145801150615801,-0.26138614819618555,0.2528530344477501,-0.7000242190305712,-1.0380952380952382,-0.419047619047619,10.368979966666668,-0.02399827721492203,0.046004602566154885,0.0006639839545630601,nan,nan,nan
29.721062161999726,1525969.7228024248,-4462980.132353607,4279166.145108354,-2.0592878824637166,-0.4811879661459859,0.5279542185613149,0.6131968185558427,-0.264776786491789,0.2545828689696983,-0.6993357408512535,-2.428095238095238,-3.0390476190476194,9.678979966666668,0.029452431127404314,-0.10998419933083832,0.003936476302052429,nan,nan,nan
29.794011354999384,1525969.5721115093,-4462980.167565126,4279166.183742052,-2.06070402299361,-0.5506974997260119,0.48049885335569104,0.6136916369396492,-0.2630348832501311,0.25334400078042085,-0.7000086019251714,-1.8180952380952382,-1.569047619047619,9.798979966666668,-0.004363323129985823,0.06236706430360173,0.005027307084548884,nan,nan,nan
29.86588258899974,1525969.424768769,-4462980.20694064,4279166.21809828,-2.0179769775658696,-0.5999703536935599,0.44390405541047134,0.6133622031907342,-0.26401534595735854,0.25458364101014147,-0.6994782877851059,-1.6480952380952383,-2.219047619047619,9.748979966666669,-0.008726646259971648,-0.046716013946043876,-0.0004268468279333958,nan,nan,nan
29.942189902999417,1525969.2710163586,-4462980.252653197,4279166.251919934,-1.9943277475775645,-0.5819498706298039,0.4749314855801287,0.6134087193491905,-0.2626007402226221,0.25400023957224627,-0.7001817429174356,-0.2880952380952382,-2.079047619047619,9.778979966666668,-0.007635815477475192,0.040550448653672605,0.015935614909513444,nan,nan,nan
30.014223881999897,1525969.1264188678,-4462980.29484711,4279166.2863545455,-2.012770226570691,-0.5906027652628245,0.45526440620523145,0.6118680991061712,-0.26484608824705513,0.25391689498027337,-0.7007140571137058,-0.9780952380952381,-1.459047619047619,9.488979966666667,0.0545415391248228,-0.048897675511036784,0.02248059960449218,nan,nan,nan
30.091375121000056,1525968.9711443165,-4462980.340408983,4279166.321475781,-2.006535846648785,-0.6095073403938078,0.46338702012400923,0.6108148553270029,-0.26647273162218066,0.2543496245557258,-0.7008593046102524,-0.8180952380952382,-1.749047619047619,9.878979966666668,0.026179938779914945,-0.042352690816058046,0.013753953344520533,nan,nan,nan
30.162767750000057,1525968.8284048482,-4462980.383767666,4279166.354439865,-1.9418781915658494,-0.6305603042097137,0.48426842694001476,0.6101015792398495,-0.2670681318671996,0.2538067389042883,-0.7014505084419822,-0.7880952380952382,-2.5490476190476192,10.108979966666668,0.030543261909900768,-0.0030827826461856367,0.015935614909513444,nan,nan,nan
30.24042671999996,1525968.6770185314,-4462980.432925333,4279166.392192806,-1.8863411637795409,-0.6925678341685781,0.3805058691204976,0.6090127814759099,-0.269129600953432,0.2553288635450898,-0.7010562473062588,-2.238095238095238,-2.219047619047619,9.258979966666669,0.009817477042468103,-0.0707142911609659,0.010481460997031164,nan,nan,nan
30.312808100999973,1525968.5404434905,-4462980.483068692,4279166.419742226,-1.8524949516176936,-0.6487494984589124,0.4103022303026591,0.6090412888725558,-0.2684360262575678,0.2552151775159998,-0.7013387355463251,0.041904761904761834,-2.199047619047619,9.558979966666667,-0.007635815477475192,0.017643002221247026,0.008299799432038252,nan,nan,nan
30.99754133799979,1525964.5681079258,-4462980.06899966,4279167.578584568,-4.841499769650426,-0.38787105632882257,1.6788603361077306,0.6621310526676513,-0.19624797820196246,0.2681740792974102,-0.6716783932021302,-1.2000952380952383,-1.9500476190476188,9.76697996666667,0.009817477042468103,-0.01551825356664523,0.009608796371033998,42.407393,-71.123618,63.4
31.070003924999583,1525964.1444161385,-4462980.1029432295,4279167.725505847,-4.907024113075663,-0.4628215007894053,1.6276720182880955,0.6628210269473612,-0.19354317518656383,0.2670255922635747,-0.67224003094741,-2.388095238095238,-2.349047619047619,9.328979966666669,-0.022907446432425572,0.06563955665109109,0.009390630214534708,nan,nan,nan
31.147080375999394,1525963.7670342948,-4462980.138537192,4279167.850684336,-5.000430132182189,-0.45597368600299404,1.6777260727915155,0.6621338222224834,-0.19413463453634297,0.2686300816875439,-0.6721074504212607,-0.9180952380952382,-2.009047619047619,9.738979966666667,-0.015271630954950382,-0.0434435215985545,0.013753953344520533,nan,nan,nan
31.220336598999893,1525963.3997639176,-4462980.172027436,4279167.973909553,-5.071614295349955,-0.45523991461003244,1.721174274476681,0.6618238777542228,-0.1933032533395055,0.26875621128977273,-0.6726017443722787,-0.9980952380952381,-2.259047619047619,9.718979966666668,-0.011999138607461017,0.013279679091261204,0.021389768821995725,nan,nan,nan
31.296329716999935,1525963.0131178638,-4462980.206733687,4279168.105127189,-5.143158192355276,-0.4149925305088888,1.811741880500242,0.6609744018143519,-0.19419947241845978,0.27024753418892133,-0.6725813526110413,-0.23809523809523817,-2.349047619047619,9.858979966666668,-0.006544984694978736,-0.047806844728540326,0.015935614909513444,nan,nan,nan
31.68007049299922,1525961.0922206894,-4462980.361727554,4279168.781787274,-5.558629933474415,-0.3943008432776855,2.0172759530457127,0.6634080949547387,-0.18353554441376183,0.26578497630800524,-0.6749538876182285,-0.9610952380952383,-2.122047619047619,9.671979966666667,-0.02072578486743266,0.06018540273860881,0.010481460997031164,nan,nan,nan
31.7521734689999,1525960.6342843298,-4462980.394211223,4279168.947976428,-5.639711973977662,-0.3220279140093465,2.117403590500906,0.663122635311686,-0.18242134508012517,0.2657388692195402,-0.6755543481757046,-0.13809523809523816,-2.3790476190476193,9.648979966666667,-0.011999138607461017,0.019824663786239937,0.021389768821995725,nan,nan,nan
31.822530428999926,1525960.2408651682,-4462980.416675483,4279169.09568382,-5.660506398793705,-0.37525346960999717,2.0982409507188517,0.6631140965733491,-0.18102473819021914,0.26575942470425457,-0.6759302240812107,-2.3980952380952383,-2.929047619047619,9.378979966666668,-0.02399827721492203,0.028551310046211587,0.018117276474506356,nan,nan,nan
31.89899323699956,1525959.8052488866,-4462980.44555391,4279169.257158404,-5.785506047140837,-0.3905960727331885,2.1580794642133148,0.6628599236598968,-0.18038645029228978,0.26794775067672827,-0.6754860869185711,-1.2680952380952382,-1.739047619047619,10.008979966666669,-0.05126904677733343,-0.030353552208597038,0.01157229177952762,nan,nan,nan
31.971247122999557,1525959.388735478,-4462980.473673922,4279169.412524076,-5.934315890815378,-0.3412833356239054,2.2437362958997595,0.6618941107038356,-0.1812675410847545,0.2703172214372201,-0.6752531859353683,-0.26809523809523816,-1.369047619047619,9.848979966666668,-0.025089107997418487,-0.06853262959597299,0.019208107257002813,nan,nan,nan
32.05439521599965,1525961.2485480846,-4462979.865358901,4279168.696496824,-2.7206375304502606,0.09350514447581892,1.505947014733994,0.6256418502844501,-0.24219125418234644,0.2275940266996797,-0.7057737818434432,-1.098095238095238,-2.529047619047619,9.998979966666669,-0.06326818538479445,-0.05544266020601552,0.002845645519555972,42.407408,-71.123655,63.2
32.22406385399972,1525960.7719654792,-4462979.848979312,4279168.960298284,-2.5077140829435183,0.09360680510265829,1.5304193385696971,0.6276413103104546,-0.23617483342899115,0.22823198628367458,-0.7058314208366694,-1.4180952380952383,-2.8790476190476193,9.738979966666667,-0.05345070834232634,0.04927709491364425,0.0017548147370595162,nan,nan,nan
32.3001217609999,1525960.5804839048,-4462979.841831775,4279169.077156544,-2.4808167269976438,0.11924530600088035,1.5739839353072993,0.6281243813527813,-0.23479728371534542,0.22917754374826155,-0.7055548533660115,-0.8880952380952382,-2.159047619047619,9.788979966666668,-0.044724062082354694,0.011098017526268291,0.0006639839545630601,nan,nan,nan
32.37241014599931,1525960.4011432596,-4462979.833211416,4279169.190941367,-2.3981761498482146,0.1305056377495049,1.5122819770060272,0.6290691542579266,-0.23203224680338572,0.22947023951781126,-0.7055327386712588,-1.9980952380952384,-2.9190476190476193,8.808979966666667,-0.05999569303730508,0.05473124882612653,0.0006639839545630601,nan,nan,nan
32.561588533999384,1525959.9712473566,-4462979.8098170385,4279169.462032307,-2.2716300397449047,0.2769063190963417,1.7999328686191005,0.629752711970918,-0.2302180008401863,0.22717684561508852,-0.7062590708992977,0.041904761904761834,-2.6690476190476193,10.298979966666668,0.0054541539124822805,0.03400546395869387,-0.001517677610429852,nan,nan,nan
32.63306915799967,1525959.786259645,-4462979.787267474,4279169.608607874,-2.2342010534760353,0.3354392096391399,1.891183103643997,0.6290800500287327,-0.23391308300087468,0.2279616426375251,-0.7053909910819769,-0.36809523809523814,-2.389047619047619,9.968979966666668,0.042542400517361786,-0.08489509133341983,-0.017880139347876692,nan,nan,nan
32.70911619099934,1525959.6163777194,-4462979.761761686,4279169.752407747,-2.1797556684512105,0.36951523750573173,1.8856933463239052,0.6283936475325372,-0.2363504308540286,0.22981234132035572,-0.7045893739686004,-1.2680952380952382,-2.5490476190476192,9.218979966666668,0.0054541539124822805,-0.08489509133341983,-0.003699339175422764,nan,nan,nan
32.7814354079992,1525959.4591123087,-4462979.735101833,4279169.888457096,-2.106978573759253,0.4226999145018726,1.9134368097051366,0.6284818129553607,-0.23546677592556148,0.23045180016860148,-0.7045977409666844,-0.7280952380952381,-2.8790476190476193,9.418979966666669,-0.028361600344907853,0.006734694396282468,0.008299799432038252,nan,nan,nan
32.85399190799944,1525959.305896792,-4462979.704363891,4279170.027598619,-2.0729664530008933,0.46109012509205344,1.9431839354953393,0.6282131055413873,-0.23625910948047926,0.23152159557466304,-0.7042213278173545,-0.8280952380952382,-2.3390476190476193,9.538979966666668,-0.007635815477475192,-0.03798936768607222,0.0006639839545630601,nan,nan,nan
32.92586222599948,1525959.1568881948,-4462979.671219895,4279170.167278213,-2.0406735438181287,0.4761446184340044,1.9874439016519785,0.6281522740666096,-0.2372186797472803,0.2307778805747126,-0.7041971236508189,-0.9180952380952382,-2.2990476190476192,9.898979966666667,0.031634092692397225,-0.006355274993675004,-0.010244323870401499,nan,nan,nan
33.00149248299931,1525959.0024725439,-4462979.635190525,4279170.317666032,-2.0554670390808605,0.5528822483040874,2.1148680656626206,0.6277888026111058,-0.2392847810549339,0.23027404488303405,-0.7039871289175333,0.4419047619047618,-1.749047619047619,10.208979966666668,0.044724062082354694,-0.0336260445560864,-0.012425985435394412,nan,nan,nan
33.07723940100004,1525957.466638615,-4462979.647451633,4279170.105214098,-3.9957816716591035,0.1471697796819219,2.038816316020624,0.6135562059184644,-0.20191533426612646,0.29484125692381935,-0.7041644791804388,-0.48809523809523814,-1.819047619047619,9.728979966666667,0.021816615649929122,0.005643863613786011,-0.014607647000387323,42.407426,-71.123698,63.1
33.15208181299931,1525957.146573666,-4462979.635663229,4279170.268524732,-4.094135334690542,0.15677769613904913,2.105533070428047,0.6134673121008318,-0.20364161017186375,0.29430620621563897,-0.70396861373934,-0.38809523809523816,-1.849047619047619,9.918979966666669,0.03490658503988659,-0.0238085675136183,-0.016789308565380235,nan,nan,nan
33.22262939099983,1525956.8581802223,-4462979.62461971,4279170.416839793,-4.209216416494098,0.15313307711434815,2.142415177863093,0.6138844611366563,-0.20400834623074354,0.2931950904056613,-0.7039624297943101,-0.6280952380952382,-1.359047619047619,9.838979966666669,0.026179938779914945,0.015461340656254116,-0.017880139347876692,nan,nan,nan
33.30124386599982,1525956.5265902083,-4462979.612556325,4279170.585613125,-4.376031771791814,0.18025297379875477,2.2001246573715045,0.6140186135770421,-0.20559067049117108,0.29252265713610714,-0.7036647738850423,-0.12809523809523815,-0.929047619047619,9.768979966666668,0.03381575425739013,-0.018354413601136023,-0.022243462477862515,nan,nan,nan
33.37330105199999,1525956.211398411,-4462979.59957327,4279170.744081181,-4.501713086511353,0.216075095279755,2.2562844884122315,0.6144723075092067,-0.20676851883858535,0.29169226343696636,-0.7032682183415986,-0.028095238095238173,-1.289047619047619,9.678979966666668,0.030543261909900768,-0.00744610577617146,-0.029879277955337707,nan,nan,nan
33.46227966999959,1525955.857887044,-4462979.582605285,4279170.921263111,-4.630086522569647,0.2329870091267573,2.299290513750814,0.6150884883396174,-0.2085500346798286,0.29160763645991944,-0.7022378667247476,-0.39809523809523817,-1.319047619047619,9.688979966666668,0.018544123302439753,-0.03144438299109349,-0.04078758578030227,nan,nan,nan
33.53440035299991,1525955.4777605706,-4462979.563477234,4279171.1100330595,-4.7793754986893315,0.24808358424867438,2.369013707434767,0.6158518047587849,-0.2099611709738967,0.290942604956308,-0.7014237395730155,-0.16809523809523816,-1.1690476190476191,9.948979966666668,0.022907446432425576,-0.01290025968865374,-0.038605924215309353,nan,nan,nan
33.607237883999915,1525955.1293983236,-4462979.545394756,4279171.28270728,-4.863839338607216,0.2938067972855164,2.4775789653429725,0.6169664259667765,-0.20982804233805882,0.29022752724275014,-0.700779997478279,0.49190476190476184,-1.9290476190476191,10.088979966666669,2.168404344971009e-19,0.019824663786239937,-0.03533343186781999,nan,nan,nan
33.68280572599997,1525954.7605444128,-4462979.523113636,4279171.470596852,-4.960712564513437,0.2769010931515614,2.517676244127775,0.6193750752354238,-0.20771341241886335,0.2894609239646309,-0.6996013354280456,-0.7580952380952382,-1.609047619047619,9.948979966666668,-0.04254240051736178,0.06345789508609818,-0.05169589360526683,nan,nan,nan
33.755757210999946,1525954.398668155,-4462979.502914133,4279171.654257414,-5.062845273322483,0.2589823695868735,2.545063853383903,0.6219029056958496,-0.20738189128232692,0.29024035696040784,-0.6971298751333628,-0.8980952380952382,-1.499047619047619,9.848979966666668,-0.0545415391248228,-0.0009011210811927245,-0.08332998629766405,nan,nan,nan
33.827483908999966,1525954.036644979,-4462979.484395372,4279171.836244429,-5.188533808966243,0.26904894701810517,2.5456608499706417,0.6245468863854956,-0.20741892676764578,0.28870858256839055,-0.6953890496929256,-0.7880952380952382,-1.159047619047619,9.338979966666669,0.0010908307824964562,0.03727795630618324,-0.09096580177513924,nan,nan,nan
33.90621087999989,1525953.6275705548,-4462979.463183013,4279172.036949443,-5.2706453763594965,0.28548263015305714,2.542985058768062,0.6253237207453963,-0.21191955114190164,0.28933294490346756,-0.6930705560526821,-0.8780952380952382,-1.869047619047619,9.208979966666668,0.039269908169872414,-0.09580339915838439,-0.08005749395017468,nan,nan,nan
33.97749717899933,1525953.2506054433,-4462979.442764832,4279172.218827861,-5.3487810579321655,0.3161657722892174,2.6417966023952575,0.6263245981428353,-0.2147299326675254,0.2888787509339478,-0.691489422618594,0.3019047619047618,-1.999047619047619,10.128979966666668,0.039269908169872414,-0.047806844728540326,-0.0724216784726995,nan,nan,nan
34.05686779200005,1525952.827283093,-4462979.417742301,4279172.427909432,-5.411033812818202,0.2836793412583527,2.7013799442428157,0.6287729128606164,-0.21631227767414554,0.2881146453272104,-0.68908894511878,-0.7280952380952381,-2.1490476190476193,10.208979966666668,0.007635815477475192,-0.010718598123660827,-0.09641995568762152,nan,nan,nan
34.13385128799928,1525953.5336290905,-4462978.926259889,4279171.940459658,-3.8393080958836183,0.5476600930292498,2.2265539611152616,0.6431226763007856,-0.26309828590516143,0.2455846100279376,-0.6759147246921352,-0.5380952380952382,-2.239047619047619,10.058979966666667,-0.04145156973486532,0.03836878708867969,-0.13132654072750813,42.40745,-71.12374,62.9
34.20733721099987,1525953.2312382627,-4462978.8831251925,4279172.115827063,-3.9216553200037985,0.5253311941115095,2.2378600496025975,0.6476180931661183,-0.26217051004524883,0.24412974929052483,-0.6725013718458709,-0.7880952380952382,-0.8790476190476191,9.838979966666669,-0.04145156973486532,0.04491377178365843,-0.1367806946399904,nan,nan,nan
34.27986387799956,1525952.9456378748,-4462978.844867166,4279172.278802553,-3.997863373326395,0.5442853036303984,2.2658504363413754,0.6508843277081903,-0.2626849919619325,0.24241865974988755,-0.6697606892791057,-0.24809523809523817,-0.939047619047619,9.648979966666667,-0.0010908307824964558,0.023097156133729306,-0.12478155603252937,nan,nan,nan
34.357467350999286,1525952.6350493224,-4462978.802582383,4279172.454833383,-4.076444255789432,0.5731827593024807,2.3044435843361333,0.6545615463691468,-0.2628205567674932,0.2400394371433339,-0.6669749666426062,-0.09809523809523818,-0.979047619047619,9.658979966666669,0.0010908307824964562,0.04164127943616906,-0.1269632175975223,nan,nan,nan
34.45723971999996,1525952.3425551488,-4462978.761455213,4279172.620182467,-4.148834762638638,0.5712728465190887,2.3454125096715046,0.6581987396066254,-0.26371070417445586,0.23849831146952374,-0.6635884565504331,-0.36809523809523814,-0.969047619047619,9.978979966666667,-0.004363323129985823,0.011098017526268291,-0.1465981716824585,nan,nan,nan
34.52990634099933,1525951.926536377,-4462978.704171604,4279172.855365521,-4.18682368402343,0.6296996573672009,2.4311540927313686,0.6639163507834961,-0.2653012307077249,0.2372497303117822,-0.6576799390060615,0.2819047619047619,-1.609047619047619,9.808979966666667,-0.02072578486743266,-0.008536936558667916,-0.16732395654989118,nan,nan,nan
34.60951461099921,1525951.592778079,-4462978.653974246,4279173.04916825,-4.268209242746051,0.6620152594686417,2.5246880993546923,0.6690542555374474,-0.2655191303276204,0.2349112487846154,-0.6532095378425568,0.38190476190476186,-0.969047619047619,10.138979966666668,-0.01854412330243975,0.03618712552368678,-0.17605060280986282,nan,nan,nan
34.68709429299997,1525951.2605278455,-4462978.602440989,4279173.245697558,-4.320198015422018,0.7101161741376706,2.5858289658778046,0.6737951354095381,-0.26661705914504935,0.23273295651740178,-0.6486530897010316,0.2819047619047619,-1.349047619047619,9.718979966666668,-0.004363323129985823,0.016552171438750568,-0.17932309515735217,nan,nan,nan
34.75870257899987,1525950.95134461,-4462978.551620166,4279173.430757355,-4.345587269273368,0.7341121726870712,2.6127370092219837,0.6784519793806253,-0.2671467377737388,0.22958855299169573,-0.6446895602251349,-0.17809523809523817,-1.6890476190476191,9.608979966666668,0.006544984694978736,0.05036792569614071,-0.18586807985233092,nan,nan,nan
34.833568198999274,1525950.6381356036,-4462978.498708895,4279173.619070859,-4.349716680446259,0.7594950412965877,2.655289234303371,0.6831646290315476,-0.2683134390821426,0.22694419983191186,-0.6401486692694848,-0.018095238095238164,-1.969047619047619,9.768979966666668,0.0054541539124822805,0.025278817698722218,-0.1967763876772955,nan,nan,nan
34.91025299800003,1525950.2921425446,-4462978.438295762,4279173.830282695,-4.392420507847008,0.7820390885383647,2.703318849751322,0.6886474155021347,-0.2702944986415145,0.22357680058414367,-0.634601478034568,-0.08809523809523817,-1.489047619047619,9.808979966666667,0.01963495408493621,0.019824663786239937,-0.21750217254472815,nan,nan,nan
35.083148928999435,1525949.5329695065,-4462978.303130426,4279174.297516371,-4.515828412059447,0.8124398115049339,2.817652802437798,0.7000490805012625,-0.276862528766785,0.2137428163442595,-0.6225692203057905,-0.13809523809523816,-1.299047619047619,9.918979966666669,0.05781403147231217,0.02200632535123285,-0.22731964958719625,nan,nan,nan
35.16589378699973,1525949.5064908704,-4462978.076995806,4279173.922264283,-3.9971788957039216,0.7630904090795207,2.355923277850331,0.6935255396871257,-0.30577440722643917,0.20073373052083257,-0.6206692417664404,0.4019047619047619,-0.839047619047619,10.328979966666669,0.06435901616729091,0.03182380239370096,-0.24477294210713954,42.407476,-71.123783,62.7
35.238111882999874,1525949.1962710915,-4462978.017772603,4279174.1051067365,-4.01061335443149,0.797134577813575,2.449213259361443,0.6990617669358007,-0.30945773597094944,0.19542568854649306,-0.6142941937453074,0.7319047619047617,-1.039047619047619,10.258979966666669,0.07417649320975901,0.01437050987375766,-0.2633170654095793,nan,nan,nan
35.310020574999726,1525948.907779391,-4462977.960433067,4279174.281283704,-4.048203167226292,0.8297016597479614,2.5180193896140337,0.7042731810136935,-0.31352938368187455,0.18929244804005504,-0.6081669028684954,0.5319047619047619,-0.669047619047619,10.038979966666668,0.10581058590215624,0.025278817698722218,-0.2829520194945155,nan,nan,nan
35.38269361199946,1525948.6137137068,-4462977.900162676,4279174.464195249,-4.053331485012016,0.9083226342316932,2.561237186479464,0.7101050777067346,-0.31802676066039215,0.18459816528274403,-0.6004442322563788,0.8419047619047618,-1.059047619047619,9.408979966666669,0.07526732399225547,-0.020536075166128934,-0.31131361983942335,nan,nan,nan
35.47067847599919,1525948.2975339289,-4462977.829309046,4279174.663984338,-4.075185594321042,0.9569130775417252,2.6045933512914443,0.7168195788640858,-0.322572595126949,0.17871941202265706,-0.5917566937121987,0.4719047619047618,-0.829047619047619,9.668979966666669,0.07744898555724837,-0.0019919518636891806,-0.33094857392435956,nan,nan,nan
35.54404486199928,1525947.957475833,-4462977.749458441,4279174.881327337,-4.126542182272356,0.9724880898241511,2.666258143243174,0.7239622516056733,-0.3283139854953626,0.17292899347430277,-0.5815360254970419,0.21190476190476182,-0.429047619047619,10.058979966666667,0.0818123086872342,-0.030353552208597038,-0.34622020487930993,nan,nan,nan
35.61913888899926,1525947.6478753495,-4462977.676495953,4279175.081367655,-4.114182172839824,1.021996548005949,2.70777320190693,0.7301256803411125,-0.3340348421571902,0.16788959515587587,-0.5719705407856086,0.6819047619047619,-1.099047619047619,9.708979966666668,0.09053895494720585,-0.046716013946043876,-0.35058352800929576,nan,nan,nan
35.692840386999706,1525947.3474053855,-4462977.601856753,4279175.279123729,-4.115652941473767,1.0705887205151923,2.7455864429214323,0.7364370517109428,-0.33916172885245205,0.16268490207233974,-0.5622841041178028,0.6719047619047619,-0.849047619047619,9.658979966666669,0.0818123086872342,-0.035807706121079315,-0.3636734973992532,nan,nan,nan
35.871486970999285,1525946.6103395082,-4462977.410126686,4279175.770826531,-4.154476830469517,1.181578187482091,2.8867014420722596,0.7532274376916644,-0.3501892233171901,0.14734361397650012,-0.5369411466427525,0.7919047619047618,-0.5090476190476191,9.858979966666668,0.07744898555724837,-0.008536936558667916,-0.39203509774416107,nan,nan,nan
35.94451811899944,1525946.3057410067,-4462977.323495574,4279175.982474103,-4.115335349098883,1.2385765194817884,2.9370503651282696,0.7601142110828113,-0.3538577603414743,0.1410198730590829,-0.5264261273105735,1.171904761904762,-1.009047619047619,9.798979966666668,0.05999569303730508,0.0034622020487930995,-0.39203509774416107,nan,nan,nan
36.02068777199929,1525945.9922541967,-4462977.229146665,4279176.206204728,-4.139556855566543,1.2746603148415157,2.9884710508208534,0.7674967444378944,-0.35708094801555285,0.13460159635718463,-0.515096451799449,0.6319047619047619,-0.22904761904761906,9.868979966666668,0.042542400517361786,0.005643863613786011,-0.3996709132216363,nan,nan,nan
36.09278978899965,1525945.694872456,-4462977.137576307,4279176.420893583,-4.146335778002223,1.298004884588401,3.0350247927257326,0.774597243087036,-0.3599602810480238,0.1286769001162887,-0.5038551011977458,0.6119047619047618,-0.419047619047619,9.988979966666667,0.03381575425739013,0.00018970970130373146,-0.41167005182909727,nan,nan,nan
36.17138497399992,1525945.975968884,-4462977.905621466,4279175.30495776,-3.1345469062913214,-0.17787063966268613,1.2563958332965817,0.7540394149856092,-0.44916777936148067,0.12124917944625344,-0.46365019537576324,1.2219047619047618,-0.39904761904761904,9.818979966666667,0.04036073895236887,-0.0009011210811927245,-0.4127608826115937,42.407493,-71.123823,62.7
36.24328966499979,1525945.7340927788,-4462977.919346786,4279175.40190706,-3.0648559174397167,-0.2160176371557786,1.2306416734318026,0.7612782074262827,-0.4511202818333098,0.11271672159527521,-0.45193021966450836,1.1819047619047618,-0.29904761904761906,10.118979966666668,0.01963495408493621,0.02964214082870804,-0.4214875288715654,nan,nan,nan
36.31683583599988,1525945.5086174526,-4462977.935238772,4279175.49244291,-2.970372702418876,-0.25226727270899585,1.201964608248679,0.7677363128343584,-0.4537799353942568,0.10545406466913401,-0.43993654655027636,1.3519047619047617,-0.579047619047619,10.178979966666668,0.028361600344907856,-0.009627767341164372,-0.42476002121905476,nan,nan,nan
36.38767252699927,1525945.2970913637,-4462977.953203221,4279175.578037176,-2.9255756510912745,-0.27612447411711794,1.1540583142379892,0.7743201379976594,-0.45479180322926593,0.09680182262640653,-0.42921107546252946,0.9219047619047619,-0.14904761904761904,9.738979966666667,0.01308996938995747,0.056912910391119446,-0.4258508520015512,nan,nan,nan
36.474446812999304,1525945.0738529323,-4462977.974273124,4279175.666098535,-2.915226529835365,-0.30939796796149766,1.0725210826518041,0.7811155300349258,-0.4565218141406938,0.08789044072548546,-0.4167992717577174,0.3119047619047618,-0.00904761904761904,9.478979966666667,0.022907446432425576,0.030732971611204498,-0.4389408213915087,nan,nan,nan
36.54665403499985,1525944.8334509833,-4462977.999787393,4279175.754543174,-2.8828541081785986,-0.32571633055409155,1.0198616790097024,0.7880992752676129,-0.45875278052808305,0.07825586386544107,-0.40289134888680167,0.8119047619047618,0.16095238095238096,9.598979966666668,0.03272492347489368,0.020915494568736395,-0.4454858060864874,nan,nan,nan
36.62293201600005,1525944.6140375913,-4462978.024577592,4279175.832164622,-2.8356075312199343,-0.35760309119611655,0.97382867666471,0.7949444590994627,-0.45958754248692046,0.06927082836452193,-0.3899283916725298,0.8319047619047618,0.02095238095238096,9.848979966666668,0.003272492347489368,0.035096294741190324,-0.4509399599989697,nan,nan,nan
36.6950322419998,1525944.4100100093,-4462978.050307843,4279175.902233525,-2.7644885772286534,-0.3491436378737749,0.9743423278421477,0.8016357240251964,-0.4597397622689446,0.06153867006043381,-0.37713725565027806,1.6419047619047618,0.36095238095238097,9.868979966666668,-0.022907446432425572,0.018733833003743483,-0.4542124523464591,nan,nan,nan
36.76831396399939,1525944.206066444,-4462978.076065084,4279175.974113312,-2.7077722176924297,-0.4099469038141791,0.901550360561238,0.8088435292103917,-0.45887971989892185,0.05417306301065759,-0.3636850666727262,0.5019047619047619,-0.419047619047619,9.988979966666667,-0.055632369907319255,0.013279679091261204,-0.45639411391145196,nan,nan,nan
36.83945760200004,1525944.0144201827,-4462978.105079633,4279176.037921765,-2.690213151883472,-0.4715004968851265,0.8383709293229946,0.8154647196179714,-0.4578775035822343,0.04710472214663427,-0.350922539144908,0.14190476190476187,-0.059047619047619036,9.948979966666668,-0.055632369907319255,0.016552171438750568,-0.44984912921647324,nan,nan,nan
36.916114235999885,1525943.80791739,-4462978.141272367,4279176.102275751,-2.679979571130552,-0.5291332489106417,0.760646794250375,0.8221530501569531,-0.45757992741236675,0.040488228293236554,-0.33622265847697347,0.06190476190476185,-0.06904761904761904,9.758979966666669,-0.04363323129985824,-0.0238085675136183,-0.45203079078146613,nan,nan,nan
36.98777914499988,1525943.615024239,-4462978.179357053,4279176.157023764,-2.5684731425288967,-0.5085778691564931,0.7172836718691032,0.8281959103295973,-0.45708667133969444,0.03419303225739347,-0.32248123371556037,1.8619047619047615,-0.26904761904761904,9.528979966666668,-0.044724062082354694,-0.019445244383632477,-0.44984912921647324,nan,nan,nan
37.06675793899922,1525943.413542765,-4462978.219251968,4279176.213290411,-2.454804472836007,-0.5685660366672824,0.6333521478524079,0.8345933031225432,-0.4564765481751021,0.027505306824253454,-0.30712642022852255,1.111904761904762,-0.919047619047619,10.048979966666668,-0.04581489286485115,-0.02708105986110767,-0.4542124523464591,nan,nan,nan
37.138557009999204,1525943.2364127298,-4462978.2602776885,4279176.258990869,-2.366397034221223,-0.6153386857850404,0.5783453115904649,0.8403939413295566,-0.45494699491359775,0.019695503644892403,-0.2938934209685068,1.1419047619047618,-0.5190476190476191,10.078979966666669,-0.05235987755982988,0.030732971611204498,-0.45312162156396263,nan,nan,nan
37.22235445299975,1525942.4229005645,-4462976.398810322,4279177.854596356,-3.014191498816845,1.8042003389922043,3.1950976440786847,0.8717110834205322,-0.3403730518908718,0.03442599854798276,-0.35082876702033355,1.111904761904762,-0.06904761904761904,9.868979966666668,-0.028361600344907853,-0.011809428906157283,-0.442213313738998,42.407526,-71.123858,62.5
37.29531118699924,1525942.1873308436,-4462976.257805688,4279178.104304532,-3.0001675007380824,1.9257322781448367,3.275124773081401,0.8779346545828718,-0.3396486127069761,0.02928291304945653,-0.3361726843881812,1.0619047619047617,-0.019047619047619035,9.568979966666667,-0.0370882466048795,-0.0009011210811927245,-0.42694168278404765,nan,nan,nan
37.367568947999644,1525941.9697385684,-4462976.1181386635,4279178.341838553,-2.988328151766023,2.0376133144869524,3.3593437439086387,0.8833978631915465,-0.3388712388877379,0.023514874006893255,-0.3228336259135302,1.0819047619047617,0.07095238095238098,9.678979966666668,-0.0272707695624114,0.026369648481218675,-0.42694168278404765,nan,nan,nan
37.4582502509993,1525941.752539545,-4462975.970039927,4279178.5860039,-3.010369072719744,2.108858451945407,3.438569143426572,0.888794464805292,-0.337453127681989,0.018408058560168604,-0.3095657117413051,0.36190476190476184,0.0009523809523809684,9.888979966666668,-0.04799655442984406,0.016552171438750568,-0.41712420574157955,nan,nan,nan
37.529783414999656,1525941.4833145353,-4462975.781439319,4279178.893523937,-2.8913051059845745,2.2806163852511294,3.5159248716836506,0.8944389101851856,-0.3372502934149192,0.012290199941154352,-0.29341136153944763,2.1219047619047617,-0.5290476190476191,9.428979966666668,-0.01090830782496456,0.0034622020487930995,-0.406215897916615,nan,nan,nan
37.601893306999955,1525941.2746415343,-4462975.61684131,4279179.147277369,-2.853287203936293,2.4094562721304547,3.6212259819802664,0.8988035862958157,-0.33693669542637894,0.00711218931409721,-0.28031267159518475,1.5319047619047619,0.24095238095238097,9.828979966666669,-0.01090830782496456,0.010007186743771835,-0.4083975594816079,nan,nan,nan
37.67684096499943,1525941.0606326621,-4462975.436121675,4279179.418884968,-2.8153033295482124,2.5495920216595023,3.7270693079078256,0.9030908251248418,-0.33622709691909275,0.0012490344454890476,-0.2671642591036143,1.5319047619047619,0.310952380952381,9.738979966666667,-0.014180800172453928,0.028551310046211587,-0.3996709132216363,nan,nan,nan
