# t [sec],r_ecef_X,r_ecef_Y,r_ecef_Z,v_ecef_X,v_ecef_Y,v_ecef_Z,q_e2b_scalar,q_e2b_i,q_e2b_j,q_e2b_k,accel_X [m/s^2],accel_Y [m/s^2],accel_Z [m/s^2],gyro_X [rad/s],gyro_Y [rad/s],gyro_Z [rad/s],gps_lat [deg],gps_long [deg],gps_alt [m]
0.0,1526255.763603228,-4462668.476558093,4279342.867677894,0.0,0.0,0.0,0.901797015,-0.39979036,-0.066508461,-0.150021455,0.0,0.0,0.0,0.0,0.0,0.0,0.0,0.0,0.0
0.3866551459996117,1526255.7858897333,-4462668.541722326,4279342.792281548,-0.8341063679374365,2.438867010190369,-2.3980478389815727,0.9017989790859794,-0.3997912307310282,-0.06650322671936985,-0.15000964816541815,0.0,0.0,0.0,0.0,0.0,0.0,42.409775,-71.119046,33.6
0.47468321299948,1526255.7061360066,-4462668.308528166,4279342.562990345,-1.0580439408084348,3.0937563787014333,-3.0302561531813046,0.9017995020450656,-0.39979146257256043,-0.06650183296429617,-0.15000650430730936,0.0,0.0,0.0,0.0,0.0,0.0,nan,nan,nan
0.55724382399967,1526255.6187482069,-4462668.053003275,4279342.312710174,-1.251475286490086,3.6594582410881356,-3.576363224149408,0.901799953772828,-0.3997916628353712,-0.06650062902594994,-0.15000378861399732,0.0,0.0,0.0,0.0,0.0,0.0,nan,nan,nan
0.9413934409994908,1526255.138655677,-4462666.649157283,4279340.940741197,-2.1498699721273216,6.286972115978703,-6.112854774605866,0.9018020517954233,-0.39979259294402775,-0.06649503711262285,-0.14999117507637597,0.0,0.0,0.0,0.0,0.0,0.0,nan,nan,nan
1.0262068399997588,1526254.955627458,-4462666.113918722,4279340.420326038,-2.349212321176342,6.870090579397949,-6.675762078387252,0.9018025173719083,-0.399792799346342,-0.06649379613417851,-0.14998837583265034,0.0,0.0,0.0,0.0,0.0,0.0,nan,nan,nan
1.1094019269994533,1526254.7604269849,-4462665.543069966,4279339.865624404,-2.543764741910916,7.439220577439655,-7.225163430433598,0.9018029717692319,-0.3997930007926396,-0.06649258493046126,-0.14998564375102444,0.0,0.0,0.0,0.0,0.0,0.0,nan,nan,nan
1.1912160659994697,1526254.5523920332,-4462664.934673337,4279339.274733863,-2.735244170345795,7.999383237587553,-7.7659060522532,0.90180341899692,-0.399793199060449,-0.06649139281538831,-0.14998295472717124,0.0,0.0,0.0,0.0,0.0,0.0,nan,nan,nan
1.2778898939995997,1526254.3158564325,-4462664.242910993,4279338.603161916,-2.9377083227561025,8.591704193099725,-8.337689754816692,0.901803891888656,-0.39979340870580665,-0.0664901322672014,-0.14998011134047173,0.0,0.0,0.0,0.0,0.0,0.0,nan,nan,nan
1.3600338129999727,1526254.073778027,-4462663.5349216955,4279337.91610438,-3.13062919365805,9.156128967933748,-8.88254215703735,0.9018043424984712,-0.3997936084730021,-0.06648893109122753,-0.14997740187817324,0.0,0.0,0.0,0.0,0.0,0.0,nan,nan,nan
1.4473530320001373,1526255.6590033504,-4462668.6428095475,4279341.8501614155,-1.855774323061678,5.050703952421598,-5.710702255053672,0.901804790878327,-0.3997938072515978,-0.06648773583744867,-0.1499747057744204,0.0,0.0,0.0,0.0,0.0,0.0,42.409768,-71.119048,33.6
1.731583707000027,1526255.1218001908,-4462667.180749162,4279340.197046994,-2.5336347175447553,7.0334238606147865,-7.624711700471325,0.9018063737334142,-0.39979450897293384,-0.06648351621724585,-0.14996518768373074,0.0,0.0,0.0,0.0,0.0,0.0,nan,nan,nan
1.8135253419995934,1526254.9146900754,-4462666.605807077,4279339.5737705175,-2.725029833440538,7.593325668503338,-8.16520247396488,0.9018068206921137,-0.3997947071214936,-0.0664823246521752,-0.1499624999005038,0.0,0.0,0.0,0.0,0.0,0.0,nan,nan,nan
1.8939356189994214,1526254.6956324591,-4462665.995400615,4279338.917392459,-2.9132410974713685,8.143934977389504,-8.696720731455061,0.9018072602230647,-0.3997949019771368,-0.0664811528676334,-0.1499598567357161,0.0,0.0,0.0,0.0,0.0,0.0,nan,nan,nan
1.9801019239994275,1526254.444072249,-4462665.292166683,4279338.166425128,-3.1154076319843527,8.735392886484663,-9.267668964486097,0.901807732351272,-0.3997951112840021,-0.06647989415553017,-0.14995701749062418,0.0,0.0,0.0,0.0,0.0,0.0,nan,nan,nan
2.0624736259997007,1526254.1873473667,-4462664.572327427,4279337.40272371,-3.3083292849123427,9.299827222486366,-9.812528351207266,0.9018081828976231,-0.39979531102306226,-0.06647869295865431,-0.1499543079811776,0.0,0.0,0.0,0.0,0.0,0.0,nan,nan,nan
2.14499232199978,1526253.915231639,-4462663.807400772,4279336.595626513,-3.500885562671423,9.863214701363969,-10.35637494282764,0.9018086325982233,-0.39979551038717875,-0.06647749399438395,-0.1499516035077628,0.0,0.0,0.0,0.0,0.0,0.0,nan,nan,nan
2.532200112999817,1526255.3216378998,-4462668.401715208,4279340.322188556,-2.786761792446768,7.575921571484349,-8.376756983736346,0.9018107229013268,-0.3997964370735813,-0.06647192066420285,-0.14993903188767438,0.0,0.0,0.0,0.0,0.0,0.0,42.40976,-71.119051,33.6
2.614503983999384,1526255.0769764893,-4462667.736593537,4279339.586758213,-2.992315042934337,8.177264829258192,-8.95724921818598,0.9018112028553891,-0.3997966498498541,-0.0664706409052246,-0.14993614516767817,0.0,0.0,0.0,0.0,0.0,0.0,nan,nan,nan
2.6963332479999735,1526254.832192605,-4462667.067659076,4279338.854017768,-3.1838367915957817,8.737582564951277,-9.498136072742072,0.9018116500550586,-0.39979684810524213,-0.06646944846041744,-0.14993345540005187,0.0,0.0,0.0,0.0,0.0,0.0,nan,nan,nan
2.782281852999404,1526254.558261464,-4462666.315894423,4279338.036816567,-3.3852640223266466,9.32690284614677,-10.06701738072253,0.9018121203914515,-0.39979705661774884,-0.06646819429849628,-0.14993062641869065,0.0,0.0,0.0,0.0,0.0,0.0,nan,nan,nan
3.166142356999444,1526253.2590899223,-4462662.736484761,4279334.173371233,-4.283697110233748,11.955576998420117,-12.604512168407942,0.9018142182178903,-0.399797986639444,-0.06646260010385602,-0.14991800773516883,0.0,0.0,0.0,0.0,0.0,0.0,nan,nan,nan
3.2530235929998526,1526252.887151902,-4462661.698424991,4279333.0789667545,-4.486929638450885,12.550312263795147,-13.178607139143427,0.9018146928149124,-0.3997981970407998,-0.06646133444675882,-0.14991515282442947,0.0,0.0,0.0,0.0,0.0,0.0,nan,nan,nan
3.3351230969992685,1526252.519906744,-4462660.671209995,4279332.000327228,-4.678501773010883,13.11094801302789,-13.71978366309076,0.9018151401901843,-0.39979839537403694,-0.06646014136204745,-0.14991246161338737,0.0,0.0,0.0,0.0,0.0,0.0,nan,nan,nan
3.418196020999858,1526252.132492017,-4462659.585526032,4279330.864227148,-4.8723134254516784,13.678159843855989,-14.267305772278267,0.9018155928027853,-0.39979859602912005,-0.06645893428774312,-0.14990973884637387,0.0,0.0,0.0,0.0,0.0,0.0,nan,nan,nan
3.50416075099929,1526251.7121913906,-4462658.405606219,4279329.633485808,-5.074205954415685,14.269044606877696,-14.837676684242224,0.9018160642945164,-0.3997988050538186,-0.06645767684065411,-0.1499069024547425,0.0,0.0,0.0,0.0,0.0,0.0,nan,nan,nan
3.5915434680000544,1526254.646021434,-4462668.660085893,4279338.014408545,-3.630932966391463,9.251476345468262,-10.692905428825897,0.9018165131920942,-0.3997990040619341,-0.06645647962842778,-0.1499042019333692,0.0,0.0,0.0,0.0,0.0,0.0,42.409743,-71.119061,33.6
3.9722711759995946,1526253.2454380055,-4462665.091453649,4279333.889764469,-4.533967306288041,11.893615681181409,-13.24338364882442,0.901818621381896,-0.3997999386779809,-0.06645085677853017,-0.1498915186129073,0.0,0.0,0.0,0.0,0.0,0.0,nan,nan,nan
4.3537057730000015,1526251.5160422584,-4462660.554859759,4279328.838327215,-5.426776754437867,14.506319136987642,-15.765398264402684,0.9018207058651697,-0.3998008627842997,-0.06644529667664671,-0.14987897683155565,0.0,0.0,0.0,0.0,0.0,0.0,nan,nan,nan
4.439378846999716,1526251.0506516737,-4462659.310823999,4279327.4863151,-5.627477344022003,15.093753030654423,-16.33243102557578,0.9018211745013268,-0.39980107054304714,-0.06644404658170279,-0.14987615702397225,0.0,0.0,0.0,0.0,0.0,0.0,nan,nan,nan
4.521924083999693,1526250.5855065405,-4462658.063233768,4279326.13634062,-5.820911024226987,15.659940446839803,-16.878952826999598,0.9018216261771651,-0.3998012707828387,-0.0664428417058252,-0.1498734392158944,0.0,0.0,0.0,0.0,0.0,0.0,nan,nan,nan
4.910773019999397,1526253.9958430694,-4462668.423644918,4279336.015872639,-3.9840726187022564,10.352477044454085,-11.487119888082372,0.9018237218611344,-0.3998021998547207,-0.06643725103316707,-0.14986082847681867,0.0,0.0,0.0,0.0,0.0,0.0,42.409735,-71.119066,33.6
4.993304798999816,1526253.64480269,-4462667.511478445,4279335.003731719,-4.190331999984525,10.956006371232052,-12.069706949077196,0.9018242032957162,-0.39980241328734684,-0.0664359666380464,-0.14985793129919314,0.0,0.0,0.0,0.0,0.0,0.0,nan,nan,nan
5.2830618029993275,1526252.430211737,-4462664.33581928,4279331.50526027,-4.8688312116484225,12.941425781406709,-13.98622448995851,0.9018257869889209,-0.3998031153802424,-0.0664317414025157,-0.1498484005421502,0.0,0.0,0.0,0.0,0.0,0.0,nan,nan,nan
5.4661979559996325,1526251.5383167905,-4462661.965149245,4279328.943199191,-5.2975807355037015,14.19620293317231,-15.19743830557411,0.9018267878087226,-0.3998035590700117,-0.06642907110949114,-0.1498423772296353,0.0,0.0,0.0,0.0,0.0,0.0,nan,nan,nan
5.546690270999534,1526251.111764299,-4462660.822094324,4279327.719526444,-5.48602203568002,14.747742899213256,-15.729825017524782,0.9018272277039385,-0.39980375408714314,-0.06642789738765871,-0.14983972969495007,0.0,0.0,0.0,0.0,0.0,0.0,nan,nan,nan
5.934858150999389,1526253.676523479,-4462668.172426264,4279335.000716514,-4.188691150878269,11.256701271489842,-12.00413279753835,0.9018293157628307,-0.39980467977862766,-0.06642232576948157,-0.14982716193658574,0.0,0.0,0.0,0.0,0.0,0.0,42.409731,-71.119068,33.6
6.017977573999815,1526253.3064473255,-4462667.177882489,4279333.94013622,-4.395501504839868,11.861879604111246,-12.588308993323055,0.9018297984020691,-0.3998048937453097,-0.06642103786316307,-0.14982425683883996,0.0,0.0,0.0,0.0,0.0,0.0,nan,nan,nan
6.103636232000099,1526252.928597467,-4462666.158201452,4279332.85800924,-4.596713641533708,12.450700972007652,-13.156693359747784,0.9018302679850934,-0.39980510192382823,-0.06641978477227563,-0.14982143027338246,0.0,0.0,0.0,0.0,0.0,0.0,nan,nan,nan
6.1883401770001,1526252.5387766922,-4462665.102329306,4279331.742265951,-4.795206618734733,13.031588881284808,-13.717417208195629,0.9018307312303168,-0.3998053072926328,-0.06641854857012121,-0.1498186418034134,0.0,0.0,0.0,0.0,0.0,0.0,nan,nan,nan
6.475146710999979,1526251.1636778947,-4462661.365321994,4279327.808586882,-5.46638612400909,14.995869090174283,-15.613504315806825,0.901832297628923,-0.3998060017183776,-0.06641436835115408,-0.14980921258909569,0.0,0.0,0.0,0.0,0.0,0.0,nan,nan,nan
6.557183633999557,1526250.7155943047,-4462660.136099853,4279326.5287367385,-5.658216968694504,15.55735981484444,-16.1554942085339,0.9018327453596193,-0.3998062002091838,-0.06641317345084598,-0.14980651728265792,0.0,0.0,0.0,0.0,0.0,0.0,nan,nan,nan
6.645677474999502,1526250.21464922,-4462658.758743174,4279325.098424776,-5.865400522747995,16.16381177558746,-16.740881407518987,0.9018332289309363,-0.39980641458908084,-0.06641188287454365,-0.14980360616229707,0.0,0.0,0.0,0.0,0.0,0.0,nan,nan,nan
6.72773843899995,1526249.7331450242,-4462657.4318187535,4279323.724127385,-6.057502140012816,16.726140780946384,-17.283675827845208,0.9018336773089202,-0.3998066133668467,-0.06641068620072275,-0.14980090685539127,0.0,0.0,0.0,0.0,0.0,0.0,nan,nan,nan
6.810330672999953,1526249.2344210597,-4462656.054728487,4279322.301134354,-6.2501571581660516,17.290111809384843,-17.828052989400046,0.9018341269859474,-0.39980681272051266,-0.0664094860376363,-0.14979819967783733,0.0,0.0,0.0,0.0,0.0,0.0,nan,nan,nan
6.887997764999454,1526248.6840388393,-4462654.532179551,4279320.731214888,-6.456206928200558,17.89331781628557,-18.410299598115078,0.9018346079353361,-0.39980702593803985,-0.06640820238568156,-0.14979530417655237,0.0,0.0,0.0,0.0,0.0,0.0,nan,nan,nan
6.975788465999358,1526253.7613247074,-4462668.882006277,4279334.277987706,-4.1711229984626215,11.460794128697994,-12.29986194158781,0.901835003625413,-0.3998072013578693,-0.06640714627136364,-0.14979292192616647,0.0,0.0,0.0,0.0,0.0,0.0,42.40972,-71.11907,33.7
7.048593452999739,1526253.394054616,-4462667.872875905,4279333.194976866,-4.377227073037009,12.063913218900312,-12.88205038588889,0.9018354845125758,-0.3998074145478101,-0.06640586273902076,-0.149790026694687,0.0,0.0,0.0,0.0,0.0,0.0,nan,nan,nan
7.120009659999596,1526253.0807289071,-4462667.009330537,4279332.272868531,-4.544773377598491,12.554221900430452,-13.355341303996626,0.9018358754434427,-0.39980758785775644,-0.06640481928957051,-0.14978767301212312,0.0,0.0,0.0,0.0,0.0,0.0,nan,nan,nan
7.192707608999626,1526252.7506744254,-4462666.097606924,4279331.302965329,-4.714753528495143,13.05166998432998,-13.835522104323603,0.9018362720588089,-0.399807763687791,-0.06640376065017431,-0.1497852850659819,0.0,0.0,0.0,0.0,0.0,0.0,nan,nan,nan
7.267689511999379,1526252.397095874,-4462665.118809085,4279330.26538323,-4.890278314408985,13.565362268287744,-14.3313814343586,0.9018366816173766,-0.39980794525588753,-0.06640266744479006,-0.1497828191502147,0.0,0.0,0.0,0.0,0.0,0.0,nan,nan,nan
7.340051432999644,1526252.0441603558,-4462664.139785428,4279329.231075321,-5.059189971688145,14.059718192785953,-14.808573876604477,0.9018370757513506,-0.39980811998585564,-0.06640161539370727,-0.14978044606516563,0.0,0.0,0.0,0.0,0.0,0.0,nan,nan,nan
7.412204819999715,1526251.678069128,-4462663.122401316,4279328.159502792,-5.228543008766362,14.555382966522671,-15.287027994533796,0.9018374709209506,-0.399808295174944,-0.0664005605610604,-0.14977806670581273,0.0,0.0,0.0,0.0,0.0,0.0,nan,nan,nan
7.490393973999744,1526251.270027347,-4462661.986481734,4279326.9664847525,-5.41118279802332,15.089954032645547,-15.803035613537778,0.901837897099878,-0.39980848411128367,-0.06639942293541139,-0.14977550059237651,0.0,0.0,0.0,0.0,0.0,0.0,nan,nan,nan
7.562912221999795,1526250.8768776767,-4462660.890120611,4279325.818314663,-5.581211767096737,15.587632825659451,-16.283430195642644,0.9018382938586602,-0.39980866000489834,-0.06639836382476466,-0.14977311158324738,0.0,0.0,0.0,0.0,0.0,0.0,nan,nan,nan
7.640764222999678,1526250.442934248,-4462659.6781703895,4279324.552265671,-5.763160309003388,16.120218941110632,-16.797517907879495,0.9018387184374385,-0.3998088482318497,-0.0663972304319992,-0.1497705550178197,0.0,0.0,0.0,0.0,0.0,0.0,nan,nan,nan
7.713769160999618,1526250.0225166136,-4462658.502214152,4279323.326901051,-5.933866794061715,16.619916679106037,-17.279857679479505,0.9018391167891684,-0.39980902483166,-0.06639616703300956,-0.14976815633558377,0.0,0.0,0.0,0.0,0.0,0.0,nan,nan,nan
7.922568074999617,1526248.9624565714,-4462655.533136789,4279320.239928037,-6.351898460532934,17.84363553975518,-18.461063979904136,0.9018400922889142,-0.39980945729638173,-0.06639356286486611,-0.14976228217929266,0.0,0.0,0.0,0.0,0.0,0.0,nan,nan,nan
8.301148823999938,1526254.3198557002,-4462669.648985743,4279334.561125197,-3.4096216751131885,10.144153182015542,-10.443244511321526,0.901842292258011,-0.3998104326006066,-0.06638768950064494,-0.14974903377999993,0.0,0.0,0.0,0.0,0.0,0.0,42.409718,-71.119066,33.7
8.374219925000034,1526254.0520194944,-4462668.8521315,4279333.740776416,-3.5935093876281217,10.682207915427893,-10.962634959009613,0.9018427211489749,-0.39981062273926343,-0.06638654440743717,-0.14974645082218005,0.0,0.0,0.0,0.0,0.0,0.0,nan,nan,nan
8.746784447999744,1526252.7117767192,-4462664.868072899,4279329.652129158,-4.466560996086434,13.236849162925907,-13.428649967094428,0.9018447573796102,-0.3998115254539172,-0.0663811076115036,-0.1497341871789445,0.0,0.0,0.0,0.0,0.0,0.0,nan,nan,nan
9.131390880999788,1526251.04051707,-4462659.915221722,4279324.627511594,-5.342305815075699,15.79982654951021,-15.902665761735864,0.9018468000453603,-0.3998124310214267,-0.06637565317384986,-0.14972188374172643,0.0,0.0,0.0,0.0,0.0,0.0,nan,nan,nan
9.31086488299934,1526254.4785040834,-4462669.638229457,4279334.343287884,-3.4735519362903995,10.488360927444736,-10.541560913431137,0.90184780636863,-0.3998128771510283,-0.06637296586514045,-0.14971582204736109,0.0,0.0,0.0,0.0,0.0,0.0,42.409716,-71.119065,33.7
9.387849542999902,1526254.1917479453,-4462668.772371704,4279333.4730382515,-3.6668018466827745,11.053822251018286,-11.087406489576155,0.9018482570049692,-0.3998130769299825,-0.06637176243929528,-0.14971310751008474,0.0,0.0,0.0,0.0,0.0,0.0,nan,nan,nan
9.760815507999723,1526252.8251170842,-4462664.652570511,4279329.340720086,-4.539228719159867,13.606698264990898,-13.551713547948037,0.9018502913722093,-0.3998139788185441,-0.06636632937569464,-0.14970085228577829,0.0,0.0,0.0,0.0,0.0,0.0,nan,nan,nan
9.832027555999957,1526252.5004232442,-4462663.679274961,4279328.371357628,-4.706641647534982,14.096665251250057,-14.024672913014767,0.9018506817960834,-0.39981415190372716,-0.06636528664160049,-0.1496985002168251,0.0,0.0,0.0,0.0,0.0,0.0,nan,nan,nan
10.017540492999615,1526251.674864603,-4462661.206678855,4279325.911389187,-5.117148811973935,15.29813647071862,-15.184434795527418,0.9018516391431244,-0.39981457632087697,-0.06636272971236244,-0.1496927326161395,0.0,0.0,0.0,0.0,0.0,0.0,nan,nan,nan
10.092530019999685,1526251.2395672316,-4462659.905321627,4279324.61970415,-5.31622069647369,15.880828215632363,-15.746893339773742,0.9018521034212033,-0.3998147821475736,-0.06636148965934029,-0.1496899354598653,0.0,0.0,0.0,0.0,0.0,0.0,nan,nan,nan
10.163340916999914,1526250.862837574,-4462658.779939647,4279323.503813355,-5.482050746020741,16.366239398138518,-16.21544726929548,0.9018524901794226,-0.3998149536076754,-0.06636045663805248,-0.14968760529984398,0.0,0.0,0.0,0.0,0.0,0.0,nan,nan,nan
10.346955510000043,1526254.6912756616,-4462669.328352599,4279334.010530979,-3.6704587682713417,11.339631681418815,-11.178614823052364,0.901853460927158,-0.3998153839657059,-0.0663578637229505,-0.14968175652675417,0.0,0.0,0.0,0.0,0.0,0.0,42.409715,-71.119061,33.7
10.421242481999798,1526254.3988289046,-4462668.424858317,4279333.119865845,-3.856960960929628,11.885379879066999,-11.70542890471004,0.9018538957527054,-0.39981557673531976,-0.06635670224869587,-0.14967913661862078,0.0,0.0,0.0,0.0,0.0,0.0,nan,nan,nan
10.501739839000038,1526254.0883381513,-4462667.468068609,4279332.177562443,-4.0453893460266475,12.436785490520869,-12.23770200551718,0.901854335076149,-0.3998157714989695,-0.06635552873877386,-0.1496764895619365,0.0,0.0,0.0,0.0,0.0,0.0,nan,nan,nan
10.680214379999597,1526253.3660175484,-4462665.24743034,4279329.992471334,-4.46331386143624,13.65982183109129,-13.41829704447225,0.9018553094783791,-0.3998162034771337,-0.06635292586351899,-0.14967061832198147,0.0,0.0,0.0,0.0,0.0,0.0,nan,nan,nan
10.75519628299935,1526253.0311967344,-4462664.22272251,4279328.985881773,-4.638883956611243,14.173663133314436,-13.914302817171139,0.9018557188441408,-0.3998163849597543,-0.06635183231254439,-0.14966815162667488,0.0,0.0,0.0,0.0,0.0,0.0,nan,nan,nan
11.040610080000079,1526251.7536012447,-4462660.319152543,4279325.153742257,-5.283441486944975,16.060158212440022,-15.735310473586232,0.9018572217079956,-0.39981705121887084,-0.06634781750868102,-0.14965909553502774,0.0,0.0,0.0,0.0,0.0,0.0,nan,nan,nan
11.112945417999981,1526251.3189446337,-4462658.9979201695,4279323.859234361,-5.475954877542438,16.62368158611893,-16.279264328562764,0.9018576706105749,-0.3998172502292036,-0.06634661824597252,-0.1496563903884336,0.0,0.0,0.0,0.0,0.0,0.0,nan,nan,nan
11.185366877999513,1526250.9224024413,-4462657.794113475,4279322.6803687,-5.645406648196223,17.11971865267,-16.758073512322028,0.9018580657450069,-0.39981742540270104,-0.06634556260876841,-0.14965400921426122,0.0,0.0,0.0,0.0,0.0,0.0,nan,nan,nan
11.468051529999684,1526254.8085011742,-4462669.19339372,4279333.941859621,-3.647891215651861,11.177800446542118,-10.866130664035307,0.9018595787042155,-0.39981809613735375,-0.06634152044248155,-0.14964489140188672,0.0,0.0,0.0,0.0,0.0,0.0,42.409715,-71.11906,33.7
11.538649351999993,1526254.5302671653,-4462668.340834242,4279333.113071996,-3.826429045709234,11.70023751753731,-11.37044262164535,0.9018599948544205,-0.39981828062769664,-0.06634040857147976,-0.1496423833825576,0.0,0.0,0.0,0.0,0.0,0.0,nan,nan,nan
11.612966446999962,1526254.2462245836,-4462667.472304961,4279332.269023971,-4.000184217008271,12.208698060011615,-11.861261076442927,0.9018603998631497,-0.39981846017872996,-0.06633932644991038,-0.1496399424682716,0.0,0.0,0.0,0.0,0.0,0.0,nan,nan,nan
11.684959756999888,1526253.9587949188,-4462666.595059864,4279331.416743648,-4.168368715233827,12.700874525567261,-12.336358704718203,0.9018607918930773,-0.3998186339759188,-0.06633827898844437,-0.1496375797359051,0.0,0.0,0.0,0.0,0.0,0.0,nan,nan,nan
11.758344179999767,1526253.652386984,-4462665.661445542,4279330.50992411,-4.340418884682687,13.204380762042376,-12.82239121155883,0.9018611929394288,-0.39981881177032585,-0.06633720741848581,-0.14963516262262105,0.0,0.0,0.0,0.0,0.0,0.0,nan,nan,nan
12.04454144600004,1526252.453149225,-4462662.0131359175,4279326.96715644,-4.9870869817784484,15.096926561074676,-14.64925121763171,0.9018627003017226,-0.3998194800237189,-0.06633317968469113,-0.14962607736525452,0.0,0.0,0.0,0.0,0.0,0.0,nan,nan,nan
12.116642042999956,1526252.0457055753,-4462660.779721124,4279325.7703166,-5.178282588208217,15.656555358808598,-15.18944917706861,0.9018631460067414,-0.399819677616489,-0.06633198869448513,-0.14962339087873527,0.0,0.0,0.0,0.0,0.0,0.0,nan,nan,nan
12.188992589000009,1526251.6691249525,-4462659.641128305,4279324.665693179,-5.348464978596622,16.15469795074251,-15.670293830109198,0.9018635427337491,-0.3998198534960172,-0.066330928562337,-0.14962099956543123,0.0,0.0,0.0,0.0,0.0,0.0,nan,nan,nan
12.26510182399943,1526251.261767675,-4462658.410731584,4279323.472190321,-5.5266927861348245,16.67640844662101,-16.1738861678989,0.9018639582220142,-0.39982003769290475,-0.06632981827777562,-0.14961849512459566,0.0,0.0,0.0,0.0,0.0,0.0,nan,nan,nan
12.337103341999864,1526250.8638848404,-4462657.210147995,4279322.3077847855,-5.695156024552368,17.169553884265728,-16.649903657195782,0.9018643509530724,-0.3998202118009233,-0.06632876878838731,-0.1496161278178961,0.0,0.0,0.0,0.0,0.0,0.0,nan,nan,nan
12.409717044999525,1526250.4507753248,-4462655.964720116,4279321.1000507735,-5.864887242938527,17.666428151680677,-17.129518744178224,0.9018647466457768,-0.3998203872219176,-0.06632771136737947,-0.14961374262004273,0.0,0.0,0.0,0.0,0.0,0.0,nan,nan,nan
12.491246153999782,1526255.261794152,-4462669.638733183,4279334.262186421,-3.555154470923034,11.07819648664416,-10.785101872757988,0.9018651634268761,-0.39982057199195253,-0.06632659757251555,-0.14961123026110643,0.0,0.0,0.0,0.0,0.0,0.0,42.409713,-71.119056,33.7
12.566637291000006,1526254.976320467,-4462668.749170268,4279333.396158573,-3.7431174055518497,11.62820867359222,-11.316033307361508,0.9018656014444038,-0.3998207661766554,-0.06632542700526528,-0.14960858984213243,0.0,0.0,0.0,0.0,0.0,0.0,nan,nan,nan
12.638438857999972,1526254.707631291,-4462667.9144719485,4279332.583868886,-3.911139591604165,12.11988957794996,-11.790655158256687,0.901865992999921,-0.39982093976352573,-0.0663243805860988,-0.1496062294608547,0.0,0.0,0.0,0.0,0.0,0.0,nan,nan,nan
12.711041560999547,1526254.4221186717,-4462667.029721779,4279331.723152781,-4.082006815722342,12.619912977557599,-12.273328329945448,0.9018663911911661,-0.39982111629218886,-0.06632331641577147,-0.14960382903873187,0.0,0.0,0.0,0.0,0.0,0.0,nan,nan,nan
12.783229988999665,1526254.1288871039,-4462666.12316845,4279330.841496412,-4.250142701832853,13.111960543146779,-12.748300690031087,0.9018667830230748,-0.3998212900015908,-0.06632226922371123,-0.14960146691405724,0.0,0.0,0.0,0.0,0.0,0.0,nan,nan,nan
12.860307143999307,1526253.8011698078,-4462665.112139748,4279329.858508563,-4.430613167252799,13.640123178631425,-13.258133015300174,0.9018672036059103,-0.3998214764570356,-0.06632114517433134,-0.14959893142426825,0.0,0.0,0.0,0.0,0.0,0.0,nan,nan,nan
13.04885208899941,1526253.0096854703,-4462662.6754693715,4279327.490076874,-4.848707893115689,14.863758998062156,-14.43929702340938,0.9018681779715899,-0.39982190841899595,-0.06631854101011743,-0.14959305727684089,0.0,0.0,0.0,0.0,0.0,0.0,nan,nan,nan
13.22291396699984,1526252.11775294,-4462659.941241931,4279324.833930327,-5.279204323412885,16.123798083811113,-15.655589919102365,0.9018691812747086,-0.39982235320968496,-0.06631585939568702,-0.14958700842691683,0.0,0.0,0.0,0.0,0.0,0.0,nan,nan,nan
13.294945775000087,1526251.736326864,-4462658.7762866365,4279323.702803387,-5.448276415350158,16.61870606814164,-16.133311244273376,0.9018695753288163,-0.39982252790424616,-0.06631480614294902,-0.14958463263132446,0.0,0.0,0.0,0.0,0.0,0.0,nan,nan,nan
13.368847927999923,1526251.3342593305,-4462657.549872695,4279322.512210223,-5.620962255427121,17.12420962507613,-16.62125843126815,0.9018699778111765,-0.39982270633527367,-0.06631373034490042,-0.14958220598084454,0.0,0.0,0.0,0.0,0.0,0.0,nan,nan,nan
13.441904655999679,1526250.9249964391,-4462656.303057074,4279321.302014535,-5.7913330375528025,17.622953849881387,-17.102679268683538,0.9018703749036718,-0.3998228823768321,-0.06631266893588689,-0.1495798117873475,0.0,0.0,0.0,0.0,0.0,0.0,nan,nan,nan
13.51887669000007,1526255.5109882106,-4462669.961473523,4279334.571583348,-3.3741606892289417,10.398801692963534,-10.082079568981076,0.9018707651159391,-0.39982305536820434,-0.06631162590038428,-0.14957745903851483,0.0,0.0,0.0,0.0,0.0,0.0,42.409713,-71.119055,33.7
13.888279584999509,1526254.2465993038,-4462666.064762395,4279330.793556533,-4.251359187398756,12.965518053735225,-12.559762216847245,0.9018728086726776,-0.39982396133071246,-0.06630616320777173,-0.14956513698079474,0.0,0.0,0.0,0.0,0.0,0.0,nan,nan,nan
13.972664791999705,1526253.9283613672,-4462665.094221086,4279329.85338831,-4.426560939055765,13.478256624747939,-13.054705770341238,0.9018732168740611,-0.3998241422971335,-0.06630507197703858,-0.14956267551919813,0.0,0.0,0.0,0.0,0.0,0.0,nan,nan,nan
14.346557971999573,1526252.230907225,-4462659.925711525,4279324.847297873,-5.324056304480336,16.104925035435187,-15.590204008563221,0.9018753079029972,-0.39982506930531675,-0.06629948181183146,-0.14955006592476683,0.0,0.0,0.0,0.0,0.0,0.0,nan,nan,nan
14.418818020999424,1526251.8438479325,-4462658.754882267,4279323.713888872,-5.494180237409307,16.602911820812114,-16.070896761462755,0.9018757043101832,-0.39982524504305955,-0.06629842200064885,-0.14954767533545663,0.0,0.0,0.0,0.0,0.0,0.0,nan,nan,nan
14.488992567999958,1526251.4585421823,-4462657.590523414,4279322.5868401285,-5.658284513472802,17.083294511078506,-16.53459509122481,0.9018760866965747,-0.39982541456501497,-0.06629739965815133,-0.14954536926331277,0.0,0.0,0.0,0.0,0.0,0.0,nan,nan,nan
14.570074027999908,1526255.5128097788,-4462669.9087265,4279334.5277410755,-3.430434385887321,10.295975206165863,-9.954366403545933,0.9018765002198853,-0.3998255978907864,-0.06629629405022465,-0.14954287537144392,0.0,0.0,0.0,0.0,0.0,0.0,42.409713,-71.119055,33.7
14.639696261999234,1526255.2558015317,-4462669.137351729,4279333.781959645,-3.605815854643094,10.809145413223598,-10.449735278482343,0.9018769087119405,-0.3998257789860699,-0.06629520187540779,-0.14954041178030153,0.0,0.0,0.0,0.0,0.0,0.0,nan,nan,nan
14.715879368999595,1526254.9811664314,-4462668.314078757,4279332.98606096,-3.784104845447871,11.330841721477551,-10.953332611575126,0.9018773239823211,-0.39982596308636353,-0.06629409155860382,-0.14953790726673716,0.0,0.0,0.0,0.0,0.0,0.0,nan,nan,nan
14.788161209999998,1526254.7074408235,-4462667.494455182,4279332.193744745,-3.9534256578555462,11.826313979807104,-11.431613857229335,0.9018777183702691,-0.3998261379289249,-0.06629303705789164,-0.14953552865612094,0.0,0.0,0.0,0.0,0.0,0.0,nan,nan,nan
14.867530859999533,1526254.3953020542,-4462666.560720388,4279331.291173104,-4.13823289229888,12.367121769552636,-11.953655779707328,0.9018781488356992,-0.399826328765584,-0.06629188607479657,-0.1495329324126311,0.0,0.0,0.0,0.0,0.0,0.0,nan,nan,nan
15.249506977999772,1526252.8553078372,-4462661.958442918,4279326.842762091,-5.009265760242078,14.916151228877684,-14.414224997114928,0.901880177670862,-0.39982722820163,-0.06628646107705793,-0.1495206953822858,0.0,0.0,0.0,0.0,0.0,0.0,nan,nan,nan
15.326696587999322,1526252.4200108529,-4462660.662253824,4279325.590189564,-5.21262967588038,15.511390031324117,-14.988796267410356,0.9018806514023644,-0.3998274382192782,-0.06628519427842028,-0.14951783789660245,0.0,0.0,0.0,0.0,0.0,0.0,nan,nan,nan
15.398160167999777,1526252.0468300467,-4462659.551767678,4279324.517116773,-5.380165961549858,16.0017829721642,-15.462160021352513,0.9018810416816829,-0.39982761124037597,-0.06628415061938589,-0.14951548374128493,0.0,0.0,0.0,0.0,0.0,0.0,nan,nan,nan
15.471657170000071,1526251.6496454065,-4462658.3704542285,4279323.375640375,-5.5529207824724285,16.507468265030315,-15.950283348745957,0.9018814441233503,-0.3998277896533632,-0.06628307441892407,-0.14951305618309166,0.0,0.0,0.0,0.0,0.0,0.0,nan,nan,nan
15.543058502999884,1526251.254752166,-4462657.196533712,4279322.24134379,-5.7193303037243215,16.994596834406682,-16.420492678957608,0.9018818317891303,-0.3998279615158105,-0.06628203771483031,-0.14951071771585797,0.0,0.0,0.0,0.0,0.0,0.0,nan,nan,nan
15.624117463999937,1526255.1892964924,-4462670.251278001,4279334.496015273,-3.7638815934920515,10.50743542060993,-10.327630320958484,0.9018822446960579,-0.3998281445683232,-0.06628093349199807,-0.14950822694831167,0.0,0.0,0.0,0.0,0.0,0.0,42.409711,-71.119061,33.7
15.693491415999233,1526254.9074351215,-4462669.464420052,4279333.722622177,-3.9391806282459734,11.020374971377317,-10.822772983769667,0.9018826529070019,-0.3998283255389827,-0.06627984180889333,-0.14950576446631195,0.0,0.0,0.0,0.0,0.0,0.0,nan,nan,nan
15.770079298999917,1526254.6070831832,-4462668.624146072,4279332.8974148175,-4.117661112422124,11.542642351416253,-11.326917954366984,0.9018830685326712,-0.3998285097967851,-0.06627873027752378,-0.14950325721308264,0.0,0.0,0.0,0.0,0.0,0.0,nan,nan,nan
15.842360930999348,1526254.3093513811,-4462667.78954322,4279332.078410144,-4.286910399864007,12.037915520059801,-11.805003579490998,0.9018834626679849,-0.39982868452734704,-0.0662776762013409,-0.14950087956006644,0.0,0.0,0.0,0.0,0.0,0.0,nan,nan,nan
15.93011000899969,1526253.9759819203,-4462666.853420691,4279331.160399896,-4.4689309367197225,12.57057947964423,-12.31918056148562,0.9018838865499724,-0.3998288724453927,-0.06627654255137685,-0.14949832241448238,0.0,0.0,0.0,0.0,0.0,0.0,nan,nan,nan
16.002855497999917,1526253.6058977502,-4462665.812417252,4279330.140215477,-4.662761214835621,13.137824434548307,-12.866736223457252,0.9018843379408229,-0.3998290725588417,-0.06627533530850772,-0.14949559926724149,0.0,0.0,0.0,0.0,0.0,0.0,nan,nan,nan
16.078924026000095,1526253.249161887,-4462664.807276108,4279329.155814595,-4.841827243675477,13.66188245491822,-13.372601895459525,0.9018847549560111,-0.39982925743265446,-0.06627421998311829,-0.1494930834559374,0.0,0.0,0.0,0.0,0.0,0.0,nan,nan,nan
16.150959875999433,1526252.9018901607,-4462663.827401102,4279328.1966877375,-5.009690543401371,14.153172276968032,-13.846835086041716,0.9018851458881109,-0.39982943074314736,-0.06627317440057746,-0.149490724961815,0.0,0.0,0.0,0.0,0.0,0.0,nan,nan,nan
16.223947980999583,1526252.534814845,-4462662.790354974,4279327.18208787,-5.181175803512291,14.655079746470804,-14.331315565751327,0.9018855452609738,-0.3998296077956528,-0.06627210622496531,-0.14948831550507236,0.0,0.0,0.0,0.0,0.0,0.0,nan,nan,nan
16.295329980999668,1526252.1650492186,-4462661.744464051,4279326.159303066,-5.348195366067203,15.143933975958651,-14.803194308237517,0.9018859342394485,-0.39982978024005233,-0.06627106583351523,-0.14948596872036224,0.0,0.0,0.0,0.0,0.0,0.0,nan,nan,nan
16.37169645599988,1526251.7580587605,-4462660.59203109,4279325.032799934,-5.526282716038996,15.665200559594318,-15.306358092239169,0.9018863489998451,-0.3998299641142566,-0.06626995646528622,-0.14948346634647444,0.0,0.0,0.0,0.0,0.0,0.0,nan,nan,nan
16.444009169999845,1526251.3567995504,-4462659.45459272,4279323.921416844,-5.69619866264746,16.162567267105043,-15.786450183426584,0.9018867447354524,-0.3998301395542709,-0.06626889796526679,-0.1494810787147219,0.0,0.0,0.0,0.0,0.0,0.0,nan,nan,nan
16.521627763999277,1526250.9154684336,-4462658.202346391,4279322.698311384,-5.877503088659215,16.693287951970827,-16.298735940292588,0.9018871670008219,-0.39983032675562724,-0.066267768485192,-0.14947853097505168,0.0,0.0,0.0,0.0,0.0,0.0,nan,nan,nan
16.594431875999362,1526250.487440576,-4462656.986661402,4279321.5113595575,-6.047912679458187,17.192135322139016,-16.78025366102968,0.9018875638980207,-0.39983050271060555,-0.06626670684214704,-0.14947613625365583,0.0,0.0,0.0,0.0,0.0,0.0,nan,nan,nan
16.67907236500014,1526254.5539712154,-4462670.901491724,4279334.559864168,-3.9731729603499044,10.136298811719705,-10.152890334763892,0.9018879967747175,-0.3998306946162427,-0.06626554893918493,-0.1494735244011967,0.0,0.0,0.0,0.0,0.0,0.0,42.409709,-71.119071,33.7
16.75109900699954,1526254.2466308114,-4462670.11740953,4279333.774498555,-4.15425354766036,10.66614607362717,-10.664351734859228,0.9018884183414079,-0.3998308815078562,-0.06626442126940602,-0.14947098074496515,0.0,0.0,0.0,0.0,0.0,0.0,nan,nan,nan
16.82394874199963,1526253.9442443033,-4462669.341024885,4279332.998244519,-4.324643872348281,11.164731697757272,-11.145634425856855,0.90188881502692,-0.3998310573689883,-0.06626336013752591,-0.14946858717659098,0.0,0.0,0.0,0.0,0.0,0.0,nan,nan,nan
16.930597466999643,1526253.633959638,-4462668.539977414,4279332.19856724,-4.492590829437003,11.656184751604442,-11.620030350638086,0.9018892060298275,-0.39983123071087207,-0.0662623141894999,-0.14946622785805289,0.0,0.0,0.0,0.0,0.0,0.0,nan,nan,nan
17.003075591999732,1526253.1517605465,-4462667.288894929,4279330.951365282,-4.7438249099399385,12.391381050530015,-12.329707247376351,0.9018897909424453,-0.399831490018036,-0.06626074949376735,-0.14946269841341847,0.0,0.0,0.0,0.0,0.0,0.0,nan,nan,nan
17.07396290199995,1526252.8159110777,-4462666.411619983,4279330.078456667,-4.909533639947169,12.87632593410661,-12.797816697122649,0.9018901767484413,-0.39983166105599216,-0.06625971740601398,-0.14946037035914722,0.0,0.0,0.0,0.0,0.0,0.0,nan,nan,nan
17.44800224299979,1526250.9820419995,-4462661.601897165,4279325.298059581,-5.78380148635878,15.434948138702186,-15.26760457892605,0.9018922121955315,-0.39983256342327966,-0.0662542720123591,-0.14944808732224893,0.0,0.0,0.0,0.0,0.0,0.0,nan,nan,nan
17.527065113999925,1526250.5225937907,-4462660.375790202,4279324.085245899,-5.969698013316556,15.979087718250547,-15.792842053735717,0.9018926450413955,-0.3998327553152478,-0.0662531139685961,-0.1494454751521888,0.0,0.0,0.0,0.0,0.0,0.0,nan,nan,nan
17.600144590000127,1526250.084556961,-4462659.203297237,4279322.926419028,-6.141406540969661,16.481716510461112,-16.278008801514623,0.9018930448582069,-0.3998329325645673,-0.06625204427288856,-0.14944306226660542,0.0,0.0,0.0,0.0,0.0,0.0,nan,nan,nan
17.98884411600011,1526249.6690397994,-4462671.4964677775,4279335.7698643375,-6.038949675499898,9.430247569903457,-8.890864081259279,0.9018950745774097,-0.39983383239253156,-0.06624661355737063,-0.1494308123388098,0.0,0.0,0.0,0.0,0.0,0.0,42.409726,-71.119136,33.6
18.06231691099947,1526249.1285489602,-4462670.652453057,4279334.974124872,-6.248473944449025,10.043323945608783,-9.48264057903827,0.901895562202821,-0.3998340485697154,-0.06624530879895668,-0.14942786922821802,0.0,0.0,0.0,0.0,0.0,0.0,nan,nan,nan
18.132364878999397,1526248.6916420278,-4462669.950201931,4279334.311077951,-6.412157818614335,10.522290005045882,-9.944964042677007,0.90189594315175,-0.39983421745440584,-0.06624428946061356,-0.14942556993246936,0.0,0.0,0.0,0.0,0.0,0.0,nan,nan,nan
18.20247947000007,1526248.2411825869,-4462669.211002273,4279333.612435923,-6.576606177450484,11.003509171389005,-10.409460706787016,0.901896325885338,-0.3998343871302825,-0.06624326533067339,-0.1494232598284363,0.0,0.0,0.0,0.0,0.0,0.0,nan,nan,nan
18.279025312999693,1526247.7369322386,-4462668.367326494,4279332.814307824,-6.756083465849758,11.528724593246377,-10.916422969979887,0.9018967436026125,-0.39983457231534864,-0.06624214757177552,-0.14942073852792875,0.0,0.0,0.0,0.0,0.0,0.0,nan,nan,nan
18.35155410199968,1526247.2492501908,-4462667.53513547,4279332.0263152635,-6.925046924930659,12.02319088973486,-11.393702929577755,0.9018971368562186,-0.39983474665502644,-0.06624109525686817,-0.14941836484777724,0.0,0.0,0.0,0.0,0.0,0.0,nan,nan,nan
18.42917361199943,1526246.7098098174,-4462666.5985649815,4279331.138779998,-7.107377074950324,12.556792820385192,-11.90875642053075,0.9018975612260534,-0.3998349347893476,-0.0662399596581759,-0.14941580330649615,0.0,0.0,0.0,0.0,0.0,0.0,nan,nan,nan
18.50193151699932,1526246.1931571646,-4462665.685780947,4279330.273103317,-7.2775195551517,13.054745243384188,-12.3893977448965,0.9018979572358126,-0.39983511035090064,-0.0662388999320021,-0.14941341290893817,0.0,0.0,0.0,0.0,0.0,0.0,nan,nan,nan
18.579588400999455,1526245.627089228,-4462664.670342562,4279329.309417714,-7.459571482694698,13.587571329333421,-12.903698502303438,0.9018983809710353,-0.39983529820388164,-0.0662377659929117,-0.14941085511117905,0.0,0.0,0.0,0.0,0.0,0.0,nan,nan,nan
18.96352677699997,1526242.8387926607,-4462659.591474616,4279324.486173065,-8.334395940844647,16.14808605925973,-15.375179530636837,0.9019004171356843,-0.39983620088928185,-0.06623231682452696,-0.14939856355971792,0.0,0.0,0.0,0.0,0.0,0.0,nan,nan,nan
19.04145710800003,1526244.9491013219,-4462671.168393479,4279337.563628678,-7.1525915157197835,10.36471406846266,-8.865710534149391,0.90190086553276,-0.39983639967551166,-0.06623111676578576,-0.14939585661753293,0.0,0.0,0.0,0.0,0.0,0.0,42.40975,-71.119185,33.6
19.11422288799986,1526244.3894081532,-4462670.357350426,4279336.869883256,-7.335767018844491,10.900738436019095,-9.38309999951,0.9019012917636469,-0.3998365886348863,-0.06622997601037899,-0.14939328344438121,0.0,0.0,0.0,0.0,0.0,0.0,nan,nan,nan
19.190301540999826,1526243.8308819255,-4462669.527396543,4279336.155478418,-7.5139902975258055,11.422290713924808,-9.886518544095837,0.9019017064779342,-0.3998367724886492,-0.06622886605838038,-0.14939077975369913,0.0,0.0,0.0,0.0,0.0,0.0,nan,nan,nan
19.261969237999438,1526243.292123907,-4462668.708410828,4279335.446608572,-7.681822570903952,11.913452685012153,-10.360601625403058,0.9019020970192687,-0.3998369456259056,-0.06622782078602099,-0.14938842195924518,0.0,0.0,0.0,0.0,0.0,0.0,nan,nan,nan
19.335391492999406,1526242.728464038,-4462667.834251719,4279334.68639115,-7.853570694739951,12.416091674685807,-10.84576091638089,0.9019024966784532,-0.39983712280534495,-0.06622675109245667,-0.14938600907849617,0.0,0.0,0.0,0.0,0.0,0.0,nan,nan,nan
19.4070338169995,1526242.1642414115,-4462666.942244741,4279333.907201154,-8.021725388720238,12.90823141084301,-11.32078434570184,0.9019028879816121,-0.39983729628033815,-0.06622570374671605,-0.14938364660716852,0.0,0.0,0.0,0.0,0.0,0.0,nan,nan,nan
19.583089950999238,1526240.7541990716,-4462664.673262454,4279331.917257037,-8.43313724379398,14.112355335478384,-12.483025465517526,0.9019038453576197,-0.39983772071032964,-0.06622314120220467,-0.1493778663402527,0.0,0.0,0.0,0.0,0.0,0.0,nan,nan,nan
19.966893832000096,1526237.6038054186,-4462659.401265403,4279327.25393388,-9.307427776842406,16.671452232423302,-14.953088267778721,0.9019058799038912,-0.3998386226782605,-0.0662176951295525,-0.14936558177175738,0.0,0.0,0.0,0.0,0.0,0.0,nan,nan,nan
20.048931338999864,1526240.657066674,-4462670.9424111005,4279338.76767564,-7.504274068578749,10.515051603221314,-8.868064718578442,0.9019063531684379,-0.3998388324888949,-0.06621642822922531,-0.14936272405669554,0.0,0.0,0.0,0.0,0.0,0.0,42.409765,-71.119231,33.6
20.11969744599992,1526240.084616109,-4462670.14028858,4279338.091190665,-7.68284258819597,11.037604858805864,-9.372447786349117,0.9019067685922649,-0.39983901665721533,-0.06621531614445234,-0.14936021555516812,0.0,0.0,0.0,0.0,0.0,0.0,nan,nan,nan
20.193998583999928,1526239.5160269914,-4462669.323421394,4279337.397557839,-7.856078584945409,11.544571839290732,-9.861784693898175,0.9019071716168355,-0.39983919532861895,-0.06621423723400605,-0.14935778188413132,0.0,0.0,0.0,0.0,0.0,0.0,nan,nan,nan
20.265830399999686,1526238.9495885554,-4462668.491035473,4279336.686504119,-8.024848405226336,12.038486280955055,-10.338521223654746,0.9019075642570934,-0.3998393693963833,-0.0662131861053468,-0.14935541087976972,0.0,0.0,0.0,0.0,0.0,0.0,nan,nan,nan
20.338873003000117,1526238.3630475625,-4462667.611135275,4279335.93085539,-8.195927184943203,12.539175322866836,-10.821795012046781,0.9019079622749178,-0.3998395458481645,-0.06621212056302297,-0.14935300736286908,0.0,0.0,0.0,0.0,0.0,0.0,nan,nan,nan
20.410666028999913,1526237.7772413066,-4462666.714894108,4279335.157364475,-8.363219914897677,13.028801042578747,-11.294388577143113,0.9019083514902955,-0.3998397183975893,-0.06621107856888603,-0.14935065696301866,0.0,0.0,0.0,0.0,0.0,0.0,nan,nan,nan
20.486366696000005,1526237.1417255444,-4462665.724843803,4279334.29911107,-8.541072757673541,13.549351511714017,-11.796829361372735,0.9019087652801477,-0.39983990184152574,-0.06620997076632623,-0.14934815812077135,0.0,0.0,0.0,0.0,0.0,0.0,nan,nan,nan
21.171230187999754,1526233.8484770698,-4462669.6686449675,4279342.359952764,-8.860684855147655,11.434101317966789,-8.00636582625075,0.9019124096751375,-0.39984151749778,-0.0662002131310104,-0.1493261480693002,0.0,0.0,0.0,0.0,0.0,0.0,42.409815,-71.119308,33.6
21.448339179999493,1526231.2540691732,-4462666.320740913,4279340.015689418,-9.546046469363738,13.439887619165532,-9.942353326049034,0.9019140037780301,-0.3998422242055643,-0.06619594455754803,-0.14931651955597966,0.0,0.0,0.0,0.0,0.0,0.0,nan,nan,nan
21.520322323000073,1526230.566788661,-4462665.353118046,4279339.299876258,-9.71454852723745,13.933096764765077,-10.418392572546155,0.9019143957350283,-0.39984239797042165,-0.06619489496012264,-0.14931415200558357,0.0,0.0,0.0,0.0,0.0,0.0,nan,nan,nan
21.594145729000047,1526229.8539670024,-4462664.330753176,4279338.535408835,-9.886275975401215,14.435764066485811,-10.903558995291778,0.9019147952005033,-0.39984257506398446,-0.06619382523861775,-0.14931173906180972,0.0,0.0,0.0,0.0,0.0,0.0,nan,nan,nan
21.66506458099957,1526229.1490561285,-4462663.301454875,4279337.757963685,-10.053142573457675,14.924220266202775,-11.37500738999716,0.9019151833647641,-0.3998427471474214,-0.06619278576341917,-0.14930939434386492,0.0,0.0,0.0,0.0,0.0,0.0,nan,nan,nan
21.742074863999733,1526228.3786397702,-4462662.157746493,4279336.886247035,-10.232483105717803,15.449208453787268,-11.881713971068189,0.9019156005516468,-0.39984293209735083,-0.06619166854908537,-0.14930687427171677,0.0,0.0,0.0,0.0,0.0,0.0,nan,nan,nan
21.81413017199975,1526227.6411287105,-4462661.044237486,4279336.029866881,-10.401149358130994,15.942967707492159,-12.358277305160856,0.9019159929140445,-0.39984310604193246,-0.06619061779632089,-0.14930450411525148,0.0,0.0,0.0,0.0,0.0,0.0,nan,nan,nan
21.89414342300006,1526226.8089661067,-4462659.768691769,4279335.041120746,-10.58837024435136,16.49106338154664,-12.887282837008588,0.9019164284454407,-0.39984329912446775,-0.06618945141621951,-0.1493018731411235,0.0,0.0,0.0,0.0,0.0,0.0,nan,nan,nan
21.97635733900006,1526226.04251763,-4462658.574971667,4279334.108263463,-10.757751976075134,16.986953352873215,-13.365899106014652,0.9019168224843997,-0.39984347381231317,-0.06618839613724402,-0.1492994927749984,0.0,0.0,0.0,0.0,0.0,0.0,nan,nan,nan
22.05085521899946,1526225.1311340285,-4462657.135857737,4279332.975920823,-10.955986413024295,17.567334035565473,-13.926060966240637,0.9019172836506167,-0.3998436782594394,-0.06618716106225275,-0.14929670684754276,0.0,0.0,0.0,0.0,0.0,0.0,nan,nan,nan
22.12294323399965,1526224.3468073634,-4462655.878232179,4279331.978969883,-11.123492021074581,18.057768363985215,-14.399407978222738,0.9019176733375301,-0.3998438510179084,-0.06618611740151646,-0.1492943526883863,0.0,0.0,0.0,0.0,0.0,0.0,nan,nan,nan
22.201913440999306,1526225.3180348645,-4462665.731957163,4279349.069709545,-10.491586581618334,13.533762296077027,-6.72497115312685,0.9019180738118807,-0.39984402855873236,-0.0661850448322148,-0.1492919333209093,0.0,0.0,0.0,0.0,0.0,0.0,42.409906,-71.119391,33.7
22.273522307999883,1526224.5087489805,-4462664.688008023,4279348.550967772,-10.672117009871567,14.062194456949031,-7.234998090384321,0.9019184936839361,-0.39984421469906956,-0.06618392029188842,-0.14928939672370478,0.0,0.0,0.0,0.0,0.0,0.0,nan,nan,nan
22.346095261999835,1526223.731248064,-4462663.663528151,4279348.023872946,-10.8426175177167,14.561286452678598,-7.716704979259464,0.901918890235194,-0.39984439050068316,-0.06618285819346138,-0.1492870009751151,0.0,0.0,0.0,0.0,0.0,0.0,nan,nan,nan
22.41817915199954,1526222.9527356464,-4462662.618011024,4279347.469804647,-11.010650014501763,15.053171265881819,-8.191454063757595,0.9019192810522307,-0.3998445637601656,-0.06618181143608495,-0.1492846398309457,0.0,0.0,0.0,0.0,0.0,0.0,nan,nan,nan
22.49434288499924,1526222.113981225,-4462661.47131088,4279346.845807127,-11.18891681447476,15.575033162567495,-8.69513417456167,0.9019196956785508,-0.39984474757493016,-0.06618070088975321,-0.1492821347996413,0.0,0.0,0.0,0.0,0.0,0.0,nan,nan,nan
22.566457564999837,1526221.3040518672,-4462660.3438848015,4279346.216394597,-11.358309100444695,16.070933779511652,-9.173755738876043,0.9019200896701781,-0.3998449222417922,-0.06617964559419871,-0.14927975439611932,0.0,0.0,0.0,0.0,0.0,0.0,nan,nan,nan
22.64520115599953,1526220.4100198443,-4462659.078913994,4279345.494312522,-11.542496772798032,16.610167060442233,-9.694198271071436,0.9019205180806328,-0.3998451121674266,-0.0661784980891578,-0.14927716599798838,0.0,0.0,0.0,0.0,0.0,0.0,nan,nan,nan
22.71735616799924,1526219.5802655676,-4462657.8848606255,4279344.797426689,-11.71070854264776,17.10264744724325,-10.169515305114286,0.9019209093386075,-0.39984528562238836,-0.06617745007983639,-0.1492748020298383,0.0,0.0,0.0,0.0,0.0,0.0,nan,nan,nan
23.101659488999758,1526215.1982735745,-4462651.485276527,4279340.992128788,-12.586260233689663,19.666124038149917,-12.643643993357877,0.9019229458204077,-0.39984618844839,-0.06617199495869197,-0.1492624970508876,0.0,0.0,0.0,0.0,0.0,0.0,nan,nan,nan
23.17463167799997,1526214.1472124017,-4462649.842985726,4279339.936275576,-12.781629247621106,20.238236442445142,-13.19580588934907,0.9019234002865312,-0.39984638992518845,-0.06617077751781915,-0.14925975090026744,0.0,0.0,0.0,0.0,0.0,0.0,nan,nan,nan
23.252161065999644,1526216.094461488,-4462662.3988752365,4279356.106951382,-11.444201289575638,13.369808322532982,-4.678108159394144,0.9019237925575216,-0.3998465638292468,-0.06616972666909378,-0.1492573805273456,0.0,0.0,0.0,0.0,0.0,0.0,42.409983,-71.119483,33.7
23.62308519399994,1526211.7896578354,-4462657.369743168,4279354.347253472,-12.324559144073545,15.94675092399881,-7.165251692247969,0.9019258395167892,-0.3998474713001856,-0.06616424282318792,-0.1492450107546762,0.0,0.0,0.0,0.0,0.0,0.0,nan,nan,nan
23.699300799999946,1526210.8518073324,-4462656.15625811,4279353.802005985,-12.502626295156409,16.468075180465767,-7.668400220393151,0.9019262535945682,-0.39984765487176754,-0.06616313344353042,-0.14924250835500943,0.0,0.0,0.0,0.0,0.0,0.0,nan,nan,nan
24.08168198599924,1526206.1961831618,-4462650.024013009,4279350.9465107815,-13.37395930894231,19.019155882065967,-10.130529697644482,0.9019282797600322,-0.3998485531242657,-0.0661577047512213,-0.14923026299091482,0.0,0.0,0.0,0.0,0.0,0.0,nan,nan,nan
24.158575565999854,1526205.0361979234,-4462648.374393808,4279350.067843168,-13.576882222132577,19.613378199382254,-10.704022403501543,0.9019287516804213,-0.39984876233899963,-0.06615644027219647,-0.1492274107375235,0.0,0.0,0.0,0.0,0.0,0.0,nan,nan,nan
24.23004677099925,1526204.061250714,-4462646.965969691,4279349.29919418,-13.744880051615556,20.105349392354345,-11.178829070516604,0.9019291423861144,-0.3998489355491205,-0.0661553933837129,-0.149225049297619,0.0,0.0,0.0,0.0,0.0,0.0,nan,nan,nan
24.309709827000006,1526204.961367106,-4462659.489834804,4279362.834433878,-12.924904098643847,13.33591061052974,-4.207993771752414,0.9019295429919302,-0.39984911314822635,-0.06615431995036584,-0.14922262798113659,0.0,0.0,0.0,0.0,0.0,0.0,42.410063,-71.119603,33.7
24.38036968799952,1526203.9714857568,-4462658.4684756445,4279362.5121557,-13.104148242534485,13.8606046581936,-4.714388898232375,0.9019299596793161,-0.3998492978767157,-0.06615320340706084,-0.14922010942261113,0.0,0.0,0.0,0.0,0.0,0.0,nan,nan,nan
24.45272081799976,1526203.0201732633,-4462657.4622472245,4279362.169908575,-13.274046656213898,14.357959700427447,-5.194396720197882,0.9019303546472198,-0.3998494729763868,-0.06615214504476943,-0.14921772210152823,0.0,0.0,0.0,0.0,0.0,0.0,nan,nan,nan
24.52542939199975,1526202.060312481,-4462656.424007508,4279361.794296086,-13.443272362661771,14.853362824787203,-5.67251904514872,0.9019307480572023,-0.3998496473853903,-0.0661510908398153,-0.14921534415804594,0.0,0.0,0.0,0.0,0.0,0.0,nan,nan,nan
24.601458045999607,1526201.0381058254,-4462655.294579648,4279361.362966082,-13.621215687376504,15.374304678397435,-6.175287511118546,0.9019311617396313,-0.39984983078170316,-0.06614998229298183,-0.1492128436369593,0.0,0.0,0.0,0.0,0.0,0.0,nan,nan,nan
24.67404470800011,1526200.0476767076,-4462654.176679501,4279360.913947089,-13.791369390270084,15.872460122529631,-6.656062737697425,0.9019315573191331,-0.39985000615251176,-0.06614892223879962,-0.149210452499521,0.0,0.0,0.0,0.0,0.0,0.0,nan,nan,nan
24.751277899999877,1526198.97868851,-4462652.94638307,4279360.398026421,-13.97274792939916,16.403496907275677,-7.168570320899823,0.9019319790006637,-0.39985019309503694,-0.06614779221848702,-0.14920790354125,0.0,0.0,0.0,0.0,0.0,0.0,nan,nan,nan
24.822194250999928,1526197.9939615307,-4462651.79034948,4279359.8928226745,-14.13765527993046,16.886327695331786,-7.634552207933433,0.9019323623952622,-0.39985036306395705,-0.06614676478211312,-0.14920558597897787,0.0,0.0,0.0,0.0,0.0,0.0,nan,nan,nan
25.011315423999804,1526195.4596064112,-4462648.763259754,4279358.524231766,-14.557108001799829,18.114481392643185,-8.819844162925856,0.9019333375872094,-0.3998507953922236,-0.06614415134934133,-0.14919969092469867,0.0,0.0,0.0,0.0,0.0,0.0,nan,nan,nan
25.08308628499981,1526194.2689445189,-4462647.281631487,4279357.802834883,-14.748477653005345,18.674858414708545,-9.36065976576892,0.9019337825266258,-0.399850992645582,-0.06614295891371362,-0.14919700117777818,0.0,0.0,0.0,0.0,0.0,0.0,nan,nan,nan
25.155770276000112,1526193.1966350805,-4462645.923848847,4279357.122254551,-14.918582821988444,19.172987497623385,-9.841398475610644,0.9019341780326204,-0.3998511679838029,-0.06614189894089163,-0.1491946102238621,0.0,0.0,0.0,0.0,0.0,0.0,nan,nan,nan
25.228223692999563,1526192.1159522007,-4462644.534982385,4279356.409356351,-15.088056333724216,19.669284266361824,-10.320367174677234,0.901934572075869,-0.39985134267355,-0.06614084287093545,-0.14919222807354182,0.0,0.0,0.0,0.0,0.0,0.0,nan,nan,nan
25.30963059899932,1526194.9014038213,-4462657.266270801,4279369.299035817,-13.35850425956507,13.280738078857468,-4.180463419432813,0.9019349834971737,-0.39985152506744687,-0.06613974020780071,-0.14918974082416575,0.0,0.0,0.0,0.0,0.0,0.0,42.410136,-71.119704,33.7
25.68060364199937,1526189.868942611,-4462652.263105932,4279367.724157403,-14.240182885927947,15.861670533793141,-6.671366803319973,0.9019370326155702,-0.39985243349558447,-0.06613424802005151,-0.14917735223501105,0.0,0.0,0.0,0.0,0.0,0.0,nan,nan,nan
25.755368677999286,1526188.8011854172,-4462651.073766374,4279367.223925071,-14.415641439137774,16.37538266363101,-7.167150497125392,0.901937440446131,-0.39985261429761004,-0.06613315486868274,-0.14917488644108517,0.0,0.0,0.0,0.0,0.0,0.0,nan,nan,nan
25.827956340000128,1526187.7541029947,-4462649.884337834,4279366.703337948,-14.585602950831257,16.873018418988867,-7.647417155937639,0.9019378355057663,-0.3998527894379482,-0.06613209593087446,-0.1491724978218234,0.0,0.0,0.0,0.0,0.0,0.0,nan,nan,nan
25.93093628999941,1526186.6203773648,-4462648.572813484,4279366.108911179,-14.767478279296528,17.405555687571624,-8.161365366952461,0.9019382582640644,-0.3998529768578328,-0.06613096272887611,-0.14916994168670425,0.0,0.0,0.0,0.0,0.0,0.0,nan,nan,nan
26.006124769000053,1526185.1389886944,-4462646.826788028,4279365.290209844,-15.002192000245731,18.09283138338651,-8.824648149386976,0.9019388038494368,-0.39985321873019336,-0.06612950025988908,-0.14916664283235712,0.0,0.0,0.0,0.0,0.0,0.0,nan,nan,nan
26.38553565299935,1526184.7992721193,-4462654.533283069,4279375.313898407,-12.989591800579548,12.72086579016744,-3.992626181668066,0.9019408368095511,-0.399854119994939,-0.06612405051561396,-0.14915434998187466,0.0,0.0,0.0,0.0,0.0,0.0,42.41021,-71.119806,33.7
26.458539423999355,1526183.7785297837,-4462653.533657641,4279375.000151629,-13.173508288271059,13.259223626743118,-4.5122099435126435,0.9019412641522689,-0.39985430944721756,-0.06612290488179803,-0.14915176580461864,0.0,0.0,0.0,0.0,0.0,0.0,nan,nan,nan
26.53089921999981,1526182.8254220064,-4462652.5743483305,4279374.673691714,-13.34283519757803,13.754893837618347,-4.990592917865072,0.9019416576017908,-0.39985448387375,-0.06612185009189898,-0.1491493865416909,0.0,0.0,0.0,0.0,0.0,0.0,nan,nan,nan
26.609969131999605,1526181.7732543373,-4462651.489687209,4279374.280151628,-13.527382963090167,14.295138876019811,-5.511994298831553,0.9019420864247693,-0.3998546739822671,-0.0661207004504148,-0.1491467933244388,0.0,0.0,0.0,0.0,0.0,0.0,nan,nan,nan
26.783804018999945,1526179.4210480426,-4462649.00397983,4279373.321699596,-13.934312227470466,15.486428723911436,-6.661727810296181,0.9019430319883569,-0.3998550931755018,-0.06611816539446187,-0.14914107506276988,0.0,0.0,0.0,0.0,0.0,0.0,nan,nan,nan
26.860003959000096,1526178.3548227716,-4462647.818989757,4279372.811957714,-14.113368040814377,16.010660541342908,-7.167668382216183,0.9019434480719218,-0.3998552776363014,-0.06611704984279707,-0.1491385587410622,0.0,0.0,0.0,0.0,0.0,0.0,nan,nan,nan
26.942282496999724,1526177.337563918,-4462646.664978459,4279372.295328792,-14.28202784909768,16.504473617682244,-7.644249822062167,0.9019438400040125,-0.39985545139011663,-0.06611599902538491,-0.14913618843877277,0.0,0.0,0.0,0.0,0.0,0.0,nan,nan,nan
27.014370178999343,1526176.164721963,-4462645.309628973,4279371.667582018,-14.474180791413941,17.067090974082248,-8.187232737533801,0.9019442865356626,-0.3998556493493541,-0.06611480179902988,-0.14913348788552971,0.0,0.0,0.0,0.0,0.0,0.0,nan,nan,nan
27.08499254199978,1526175.1463101786,-4462644.108778519,4279371.091523558,-14.638811792654042,17.549144111947243,-8.652461165811417,0.9019446691178548,-0.39985581895811306,-0.06611377601419618,-0.14913117404859513,0.0,0.0,0.0,0.0,0.0,0.0,nan,nan,nan
27.16067362600006,1526174.0345700232,-4462642.776014051,4279370.434414999,-14.816503280570323,18.069457095194895,-9.154612394473215,0.9019450820567464,-0.3998560020247962,-0.06611266881819844,-0.14912867657455453,0.0,0.0,0.0,0.0,0.0,0.0,nan,nan,nan
27.233525736000047,1526172.957028858,-4462641.461899413,4279369.768639037,-14.986657703432485,18.56771844010303,-9.635479957445819,0.9019454774865076,-0.3998561773292208,-0.06611160855085385,-0.14912628495629127,0.0,0.0,0.0,0.0,0.0,0.0,nan,nan,nan
27.312124209000103,1526171.7740963572,-4462639.996305279,4279369.0080877105,-15.171327898078898,19.108505138941922,-10.157386540431892,0.9019459066562715,-0.39985636759147697,-0.06611045779654101,-0.1491236892288597,0.0,0.0,0.0,0.0,0.0,0.0,nan,nan,nan
27.391552481999497,1526175.4730532975,-4462652.512237211,4279381.26685509,-13.050652846413985,12.981009256002023,-4.448711511162065,0.9019463066476815,-0.39985654491820066,-0.0661093852610776,-0.14912126993771074,0.0,0.0,0.0,0.0,0.0,0.0,42.41028,-71.119906,33.7
27.464710706000005,1526174.4481961918,-4462651.492849159,4279380.91750141,-13.23444262200021,13.519008649919446,-4.967949612837286,0.9019467336108712,-0.3998567342022244,-0.06610824038386033,-0.14911868746709522,0.0,0.0,0.0,0.0,0.0,0.0,nan,nan,nan
27.536114454999733,1526173.4977753884,-4462650.521992477,4279380.5607321225,-13.402510973189981,14.01100607543033,-5.442788153515421,0.9019471240581801,-0.39985690729779677,-0.06610719340404454,-0.14911632582117496,0.0,0.0,0.0,0.0,0.0,0.0,nan,nan,nan
27.612332476999654,1526172.4751065858,-4462649.4528929,4279380.145424151,-13.581082061746658,14.533766957622687,-5.947315507941935,0.9019475389108585,-0.399857091212912,-0.0661060809628551,-0.14911381651568792,0.0,0.0,0.0,0.0,0.0,0.0,nan,nan,nan
27.684619859000122,1526171.4946643554,-4462648.40367467,4279379.716076971,-13.75002333646825,15.02835508790766,-6.424651009193025,0.9019479313981388,-0.39985726521285736,-0.06610502847751622,-0.1491114424510983,0.0,0.0,0.0,0.0,0.0,0.0,nan,nan,nan
27.763491070999407,1526170.4099547695,-4462647.218120258,4279379.209250156,-13.934628891746778,15.568820385686088,-6.946261546996607,0.9019483602830412,-0.39985745534882694,-0.06610387836942269,-0.14910884818132733,0.0,0.0,0.0,0.0,0.0,0.0,nan,nan,nan
27.83559575199979,1526169.4051673906,-4462646.09549587,4279378.708374532,-14.103361431262504,16.062833433562304,-7.423038571819862,0.901948752297647,-0.39985762913922335,-0.06610282711562275,-0.14910647689468903,0.0,0.0,0.0,0.0,0.0,0.0,nan,nan,nan
28.024130696999237,1526166.8873542417,-4462643.227866516,4279377.383171018,-14.521102873265049,17.28593422372398,-8.603461521664016,0.9019497228351956,-0.3998580594040725,-0.0661002243803138,-0.14910060597040647,0.0,0.0,0.0,0.0,0.0,0.0,nan,nan,nan
28.09604476000004,1526165.6972045049,-4462641.8111111745,4279376.678031226,-14.712870633239373,17.84745740297244,-9.14538674824612,0.9019501683898737,-0.39985825693019256,-0.06609902948052035,-0.1490979106651296,0.0,0.0,0.0,0.0,0.0,0.0,nan,nan,nan
28.172527314000035,1526164.5723029815,-4462640.446548642,4279375.978802657,-14.891756282009837,18.371280649470698,-9.650925836051746,0.9019505840214234,-0.39985844119060193,-0.06609791480932313,-0.1490953963294704,0.0,0.0,0.0,0.0,0.0,0.0,nan,nan,nan
28.244964982000056,1526163.4986971063,-4462639.12209003,4279375.28302907,-15.060428368713422,18.8652141776663,-10.127616764593249,0.9019509759286415,-0.3998586149333905,-0.06609686374608953,-0.14909302547268777,0.0,0.0,0.0,0.0,0.0,0.0,nan,nan,nan
28.317427106999276,1526162.4030153395,-4462637.7496011015,4279374.5462210085,-15.230635608530656,19.363660534649558,-10.608661321684554,0.9019513714085956,-0.399858790260067,-0.06609580308366308,-0.14909063296324834,0.0,0.0,0.0,0.0,0.0,0.0,nan,nan,nan
28.39386541299973,1526166.3406957411,-4462650.974043888,4279386.468098742,-12.771160759096428,12.213165444420895,-4.4487959207516745,0.9019517585251422,-0.3998589618790247,-0.06609476483464692,-0.14908829101117227,0.0,0.0,0.0,0.0,0.0,0.0,42.41034,-71.120005,33.7
28.465514068999255,1526165.3592368516,-4462650.035466728,4279386.126210453,-12.951027198664683,12.73965488381127,-4.956929262890358,0.9019521762642347,-0.39985914707376335,-0.06609364443697387,-0.1490857637584462,0.0,0.0,0.0,0.0,0.0,0.0,nan,nan,nan
28.53799061099926,1526164.4232503674,-4462649.114756378,4279385.767967148,-13.12017231421022,13.234780147088363,-5.434790175788609,0.9019525691095667,-0.39985932123244244,-0.0660925907878412,-0.1490833870687164,0.0,0.0,0.0,0.0,0.0,0.0,nan,nan,nan
28.615603911999642,1526163.4010517464,-4462648.083628609,4279385.344540161,-13.302509988911916,13.768541564133779,-5.949938259803012,0.9019529926011595,-0.39985950897741585,-0.06609145492314795,-0.1490808249274236,0.0,0.0,0.0,0.0,0.0,0.0,nan,nan,nan
28.999269382999955,1526158.4348407506,-4462642.943434573,4279383.123256446,-14.176200770355983,16.32621351633724,-8.418409795166028,0.901955021773808,-0.3998604085630782,-0.06608601211517295,-0.1490685477229781,0.0,0.0,0.0,0.0,0.0,0.0,nan,nan,nan
29.076215584999773,1526157.201086267,-4462641.522564521,4279382.390602401,-14.379842001666077,16.92246712433826,-8.993858343376115,0.901955494788099,-0.39986061826276764,-0.06608474329250133,-0.14906568567173245,0.0,0.0,0.0,0.0,0.0,0.0,nan,nan,nan
29.14804015199934,1526156.1692680954,-4462640.30830159,4279381.745252719,-14.547733906865727,17.414068736832903,-9.468304527796683,0.9019558847721305,-0.399860791152957,-0.06608369717297864,-0.14906332596635363,0.0,0.0,0.0,0.0,0.0,0.0,nan,nan,nan
29.221158669000033,1526155.1021316876,-4462639.030907677,4279381.05071345,-14.719363431775482,17.916631812555813,-9.953327978112895,0.9019562834438263,-0.3998609678946166,-0.06608262773149243,-0.1490609136542109,0.0,0.0,0.0,0.0,0.0,0.0,nan,nan,nan
29.293032691999542,1526154.0501934213,-4462637.750472507,4279380.339386046,-14.886570664674464,18.4062629263559,-10.425869128203514,0.901956671849086,-0.39986114008489476,-0.06608158581274193,-0.14905856342440776,0.0,0.0,0.0,0.0,0.0,0.0,nan,nan,nan
29.36945087299955,1526152.9114016104,-4462636.342431531,4279379.54182866,-15.065544805198549,18.930369019625584,-10.931680211851587,0.9019570875935364,-0.39986132439535604,-0.06608047053638828,-0.1490560477237125,0.0,0.0,0.0,0.0,0.0,0.0,nan,nan,nan
29.447020509999675,1526156.5051420312,-4462648.866117165,4279392.368280895,-12.736761632173295,12.01304213077619,-4.1444645455228235,0.9019574806608149,-0.39986149865242987,-0.06607941607604774,-0.14905366920416158,0.0,0.0,0.0,0.0,0.0,0.0,42.410413,-71.12011,33.7
29.52008923699941,1526155.5030023411,-4462647.920920367,4279392.042190753,-12.920915235846246,12.55207669046044,-4.6647069652959345,0.9019579082548771,-0.399861688216136,-0.06607826897294052,-0.1490510817126623,0.0,0.0,0.0,0.0,0.0,0.0,nan,nan,nan
29.59203683999931,1526154.576961031,-4462647.021313696,4279391.707871452,-13.088653992835862,13.043082117290453,-5.138592878317054,0.9019582977412827,-0.39986186088571457,-0.06607722408312908,-0.14904872478111209,0.0,0.0,0.0,0.0,0.0,0.0,nan,nan,nan
29.870342952999636,1526150.9355858047,-4462643.392616955,4279390.278271066,-13.739762623488293,14.949075281771924,-6.97812488219886,0.9019598095919764,-0.39986253112893344,-0.06607316802364872,-0.149039575630212,0.0,0.0,0.0,0.0,0.0,0.0,nan,nan,nan
30.25357977299973,1526145.8027896923,-4462637.808055009,4279387.671436199,-14.613953084425528,17.50844035247505,-9.448212935898852,0.9019618395264137,-0.39986343105231686,-0.06606772162400984,-0.14902729032414097,0.0,0.0,0.0,0.0,0.0,0.0,nan,nan,nan
30.33215137099978,1526144.5308061074,-4462636.284138202,4279386.849073373,-14.817599021306108,18.104761488785815,-10.0237225660525,0.90196231245869,-0.399863640715647,-0.06606645266053413,-0.14902442795528711,0.0,0.0,0.0,0.0,0.0,0.0,nan,nan,nan
30.40475086599963,1526143.4339243604,-4462634.943922261,4279386.107061235,-14.990791015157866,18.61192792549991,-10.513186931207821,0.901962714674752,-0.39986381902861745,-0.06606537342184389,-0.1490219935438388,0.0,0.0,0.0,0.0,0.0,0.0,nan,nan,nan
30.48647255099968,1526146.3043039846,-4462646.309801986,4279398.298164126,-13.020913424729821,12.292898555863665,-4.066425904867538,0.9019631307701912,-0.3998640034946813,-0.06606425692251526,-0.14901947508450972,0.0,0.0,0.0,0.0,0.0,0.0,42.410488,-71.120218,33.7
30.55740844399952,1526145.3127323387,-4462645.3736703,4279397.98849671,-13.19914440548547,12.814612497343596,-4.569949488235876,0.9019635445273781,-0.3998641869241363,-0.0660631466781443,-0.14901697073433062,0.0,0.0,0.0,0.0,0.0,0.0,nan,nan,nan
30.63174053900002,1526144.3308594169,-4462644.420402373,4279397.648542125,-13.373243244784524,13.324249648154026,-5.061815557875239,0.9019639486984172,-0.39986436610379955,-0.06606206213800155,-0.14901452436452975,0.0,0.0,0.0,0.0,0.0,0.0,nan,nan,nan
30.703498857999875,1526143.3708529929,-4462643.463912984,4279397.285176607,-13.541243494603686,13.816052134245218,-5.536467162989264,0.9019643387176989,-0.39986453900961616,-0.06606101555490793,-0.14901216361348568,0.0,0.0,0.0,0.0,0.0,0.0,nan,nan,nan
30.776957860999573,1526142.3762514342,-4462642.4491267875,4279396.878524229,-13.713133161917172,14.319257898131813,-6.022122699219844,0.901964737772289,-0.39986471592102296,-0.06605994470871324,-0.1490097481327775,0.0,0.0,0.0,0.0,0.0,0.0,nan,nan,nan
30.848189241999535,1526141.3988866624,-4462641.42856219,4279396.44931447,-13.879921437567505,14.807546680976895,-6.493379849280843,0.9019651249896092,-0.39986488758465627,-0.06605890561028734,-0.14900740426470932,0.0,0.0,0.0,0.0,0.0,0.0,nan,nan,nan
30.935952694999287,1526140.3321447452,-4462640.290527598,4279395.950265503,-14.059769035992819,15.334086001560177,-7.001551609566017,0.9019655425314881,-0.39986507269196486,-0.06605778511703458,-0.14900487679638652,0.0,0.0,0.0,0.0,0.0,0.0,nan,nan,nan
31.009328117999758,1526139.1523494408,-4462639.003800724,4279395.362745346,-14.256126084541911,15.908981315684462,-7.5563904868970555,0.9019659984093052,-0.3998652747946043,-0.06605656172519342,-0.14900211722231743,0.0,0.0,0.0,0.0,0.0,0.0,nan,nan,nan
31.08324910400006,1526138.093329964,-4462637.821998531,4279394.801417208,-14.429948133453319,16.417919135616675,-8.04757095716197,0.9019664019755383,-0.3998654537061412,-0.06605547869708146,-0.1489996742631662,0.0,0.0,0.0,0.0,0.0,0.0,nan,nan,nan
31.155522527999892,1526137.0550359753,-4462636.64066187,4279394.222361451,-14.598310195288269,16.910888199031888,-8.523338139592987,0.9019667928713005,-0.39986562700052464,-0.06605442965461143,-0.14899730796456892,0.0,0.0,0.0,0.0,0.0,0.0,nan,nan,nan
31.228330348999407,1526135.9865897105,-4462635.402958664,4279393.598540702,-14.769558162050647,17.41232468969753,-9.007275610961202,0.9019671904732761,-0.39986580326794907,-0.06605336259719514,-0.14899490103011245,0.0,0.0,0.0,0.0,0.0,0.0,nan,nan,nan
31.300089833999664,1526134.9306894357,-4462634.158122615,4279392.954595589,-14.93682781791496,17.902129466099698,-9.47998562766274,0.9019675788443725,-0.3998659754430817,-0.06605232029589433,-0.14899254993740027,0.0,0.0,0.0,0.0,0.0,0.0,nan,nan,nan
31.376703216999886,1526133.7878501697,-4462632.78840364,4279392.229267565,-15.115836997258725,18.42632840736578,-9.985887675874075,0.9019679944784872,-0.39986615970462824,-0.06605120480802291,-0.14899003375958966,0.0,0.0,0.0,0.0,0.0,0.0,nan,nan,nan
31.448748565999267,1526132.697695174,-4462631.459495821,4279391.5090847965,-15.284566259680842,18.920442549371337,-10.4627532671847,0.9019683862504326,-0.3998663333874468,-0.06605015334424191,-0.14898766199930238,0.0,0.0,0.0,0.0,0.0,0.0,nan,nan,nan
31.53323722799996,1526136.180080087,-4462644.084985085,4279404.495734612,-13.194776447107298,12.611111547398133,-4.283800377916349,0.9019688155121534,-0.3998665236904699,-0.06604900124314932,-0.14898506323397379,0.0,0.0,0.0,0.0,0.0,0.0,42.410561,-71.120325,33.7
31.605532192999817,1526135.1528584806,-4462643.103202157,4279404.162238072,-13.376977600257296,13.144462718103988,-4.798554537553286,0.9019692383994402,-0.39986671116753864,-0.06604786623029484,-0.14898250301415217,0.0,0.0,0.0,0.0,0.0,0.0,nan,nan,nan
31.67781911699967,1526134.187930093,-4462642.155045885,4279403.816101476,-13.545792822940895,13.638648280159263,-5.275506941502794,0.9019696302246858,-0.3998668848739866,-0.06604681456885449,-0.1489801308080097,0.0,0.0,0.0,0.0,0.0,0.0,nan,nan,nan
31.749633725999956,1526133.2177003825,-4462641.1781653175,4279403.438238501,-13.713414910316347,14.12935816850115,-5.749103234938525,0.9019700192864758,-0.3998670573553219,-0.06604577030752508,-0.14897777529411052,0.0,0.0,0.0,0.0,0.0,0.0,nan,nan,nan
31.828354901999774,1526132.1294662673,-4462640.056923841,4279402.982015867,-13.899120299352118,14.673025307688528,-6.273808081559201,0.9019704503268224,-0.3998672484468566,-0.06604461335384185,-0.14897516558291576,0.0,0.0,0.0,0.0,0.0,0.0,nan,nan,nan
31.931148316999497,1526131.1057781551,-4462638.976236628,4279402.519941821,-14.071471131589941,15.177615255192636,-6.760796835122636,0.901970850376767,-0.3998674257995302,-0.06604353956274493,-0.14897274345946607,0.0,0.0,0.0,0.0,0.0,0.0,nan,nan,nan
32.002456361999975,1526129.6959355532,-4462637.455567724,4279401.842567059,-14.305921264996254,15.864037154879526,-7.423272505094953,0.9019713945744154,-0.39986766705667626,-0.06604207882986264,-0.14896944852120653,0.0,0.0,0.0,0.0,0.0,0.0,nan,nan,nan
32.078748922999694,1526128.6074834534,-4462636.248567893,4279401.277774594,-14.4839516982638,16.385298951074237,-7.926347358995513,0.9019718078222398,-0.3998678502603175,-0.06604096956973761,-0.14896694639116617,0.0,0.0,0.0,0.0,0.0,0.0,nan,nan,nan
32.151564242999484,1526127.5520248285,-4462635.054556379,4279400.700174512,-14.654458138524632,16.884549307023967,-8.408176997120098,0.9019722036115768,-0.39986802572415153,-0.06603990715459869,-0.1489645499281775,0.0,0.0,0.0,0.0,0.0,0.0,nan,nan,nan
32.22964710999986,1526126.4050328317,-4462633.7330170395,4279400.042073637,-14.83758993376936,17.42078611794741,-8.925700683867099,0.9019726287137466,-0.3998682141831362,-0.06603876603562676,-0.14896197593494107,0.0,0.0,0.0,0.0,0.0,0.0,nan,nan,nan
32.30121731100007,1526125.3425613574,-4462632.4855713025,4279399.402933291,-15.005127629517451,17.9113796474139,-9.399172129796668,0.9019730176240314,-0.3998683865973053,-0.06603772205025525,-0.14895962104351315,0.0,0.0,0.0,0.0,0.0,0.0,nan,nan,nan
32.380624210999486,1526124.1510663235,-4462631.063302834,4279398.656583964,-15.190907177545107,18.45540882278406,-9.924212472793824,0.9019734488856583,-0.3998685777869394,-0.06603656435770369,-0.1489570096656718,0.0,0.0,0.0,0.0,0.0,0.0,nan,nan,nan
32.45410600499963,1526123.0356023693,-4462629.70812746,4279397.92785189,-15.362699000419907,18.95849620279111,-10.40973820523687,0.9019738476834803,-0.3998687545845141,-0.06603549379347759,-0.14895459482099305,0.0,0.0,0.0,0.0,0.0,0.0,nan,nan,nan
32.535907311999836,1526125.954479037,-4462641.913312881,4279410.670035003,-13.359331191025554,12.20512421422114,-3.7017088772441733,0.9019742645166557,-0.3998689393776358,-0.06603437479467356,-0.1489520707236605,0.0,0.0,0.0,0.0,0.0,0.0,42.410635,-71.120435,33.7
32.9250900699999,1526120.9359746291,-4462637.328392514,4279409.27946821,-14.23852908640627,14.778729893575804,-6.185573574359653,0.9019763045705942,-0.3998698437872604,-0.0660288979392412,-0.14893971671922557,0.0,0.0,0.0,0.0,0.0,0.0,nan,nan,nan
32.995377362999534,1526119.669132515,-4462636.01348721,4279408.729120274,-14.446730859821145,15.388292834148709,-6.773870609576242,0.9019767877263362,-0.3998700579829221,-0.06602760076099466,-0.14893679070702598,0.0,0.0,0.0,0.0,0.0,0.0,nan,nan,nan
33.066317963000074,1526118.6456667972,-4462634.9233173765,4279408.249231474,-14.612504030284958,15.873656242110481,-7.242299079484824,0.901977172429568,-0.3998702285319938,-0.06602656788967456,-0.14893446088528306,0.0,0.0,0.0,0.0,0.0,0.0,nan,nan,nan
33.439217806999295,1526113.20222739,-4462629.010074462,4279405.551335471,-15.484162025278984,18.42585070100601,-9.705435904468217,0.9019791952140193,-0.39987112528560004,-0.06602113673927994,-0.14892220997654707,0.0,0.0,0.0,0.0,0.0,0.0,nan,nan,nan
33.815723886999876,1526114.9463609124,-4462639.175725745,4279416.806749414,-12.340766401823952,11.85738248071637,-4.198416819818693,0.901981209629781,-0.3998720183291459,-0.06601572760254901,-0.14891000872347615,0.0,0.0,0.0,0.0,0.0,0.0,42.41071,-71.120546,33.6
33.888224343999354,1526113.976730767,-4462638.244075706,4279416.476874317,-12.524660327348489,12.395660680138047,-4.717937722213851,0.9019816362167852,-0.3998722074463966,-0.06601458206687852,-0.14890742476760432,0.0,0.0,0.0,0.0,0.0,0.0,nan,nan,nan
33.96971507999933,1526113.0858322522,-4462637.362353137,4279416.1412800895,-12.691136111006793,12.882972480458951,-5.188266464145852,0.9019820224047561,-0.3998723786536923,-0.06601354499916524,-0.14890508548016332,0.0,0.0,0.0,0.0,0.0,0.0,nan,nan,nan
34.0439415539995,1526112.013502689,-4462636.273814481,4279415.702900778,-12.888880122987064,13.461833221869599,-5.746951707378414,0.90198248113437,-0.39987258202060827,-0.06601231310665161,-0.14890230673134205,0.0,0.0,0.0,0.0,0.0,0.0,nan,nan,nan
34.116099815999405,1526111.0878783155,-4462635.307043061,4279415.290179228,-13.056945966211343,13.953836399961691,-6.221804771600626,0.9019828710234764,-0.3998727548687147,-0.06601126606287326,-0.14889994494114311,0.0,0.0,0.0,0.0,0.0,0.0,nan,nan,nan
34.188634312999966,1526110.1366196093,-4462634.2904417515,4279414.836892068,-13.227437791436596,14.452958786146837,-6.703527218586382,0.9019832665463486,-0.3998729302144179,-0.06601020387223411,-0.1488975489845529,0.0,0.0,0.0,0.0,0.0,0.0,nan,nan,nan
34.26071016199967,1526109.1867602644,-4462633.252578018,4279414.35551328,-13.395479299095296,14.944925042019536,-7.178341339865016,0.9019836563906578,-0.39987310304266455,-0.06600915691439474,-0.14889518738820431,0.0,0.0,0.0,0.0,0.0,0.0,nan,nan,nan
34.33819138599938,1526108.1533528059,-4462632.09963704,4279413.80173306,-13.576002492241388,15.473451571665972,-7.688439317126703,0.9019840751975468,-0.3998732887107854,-0.0660080321562417,-0.14889265029965368,0.0,0.0,0.0,0.0,0.0,0.0,nan,nan,nan
34.41095349899933,1526107.1559413886,-4462630.962822483,4279413.236873326,-13.747915124876286,15.976787269748053,-8.174223006911639,0.9019844740347708,-0.3998734655258281,-0.0660069610108127,-0.14889023414397026,0.0,0.0,0.0,0.0,0.0,0.0,nan,nan,nan
34.487662793999334,1526106.1028160467,-4462629.738959854,4279412.610707007,-13.92715513819317,16.501595088414824,-8.680728263078572,0.9019848898776625,-0.39987364987993096,-0.06600584417474695,-0.14888771492507177,0.0,0.0,0.0,0.0,0.0,0.0,nan,nan,nan
34.55969793599979,1526105.0991269634,-4462628.549738459,4279411.985112469,-14.095777178847866,16.995332133878417,-9.157244575127947,0.9019852810928598,-0.39987382331592847,-0.06600479346396161,-0.1488853448632978,0.0,0.0,0.0,0.0,0.0,0.0,nan,nan,nan
34.638796472999275,1526103.9840752943,-4462627.2053164225,4279411.260725249,-14.2808617319166,17.53729139513487,-9.680299376649545,0.9019857105082894,-0.3998740136870947,-0.0660036401366758,-0.1488827433320761,0.0,0.0,0.0,0.0,0.0,0.0,nan,nan,nan
35.322301642999264,1526096.0856365012,-4462635.119169481,4279427.35727738,-15.120866776691576,13.436950284286269,-4.122314603192077,0.901989334677997,-0.3998756203769489,-0.06599390548883151,-0.14886078513286377,0.0,0.0,0.0,0.0,0.0,0.0,42.410848,-71.120759,33.5
35.398710407999715,1526094.6914939906,-4462633.8802839145,4279426.977200357,-15.336634170739151,14.068632502882071,-4.731950666035913,0.9019898350924992,-0.3998758422238734,-0.06599256124190411,-0.1488577529490299,0.0,0.0,0.0,0.0,0.0,0.0,nan,nan,nan
35.471192823999445,1526093.5806449526,-4462632.861277612,4279426.634460041,-15.50613160276799,14.56487656862424,-5.210873353604876,0.9019902282046711,-0.3998760165008497,-0.0659915052179502,-0.14885537090247578,0.0,0.0,0.0,0.0,0.0,0.0,nan,nan,nan
35.54424246899998,1526092.4603003203,-4462631.808940272,4279426.257965495,-15.675204038771913,15.059893700166953,-5.6886102798789455,0.9019906203370799,-0.3998761903434712,-0.06599045180865598,-0.14885299475374347,0.0,0.0,0.0,0.0,0.0,0.0,nan,nan,nan
35.61542680999992,1526091.3322450619,-4462630.725165398,4279425.848588576,-15.84359871200157,15.55294368194378,-6.164447083731143,0.9019910109034251,-0.39987636349181555,-0.06598940258920352,-0.1488506280559314,0.0,0.0,0.0,0.0,0.0,0.0,nan,nan,nan
35.69231805599975,1526090.1113322119,-4462629.526650518,4279425.373554286,-16.023912363556704,16.080910130190365,-6.673979611542951,0.901991429120083,-0.39987654889827146,-0.06598827907080838,-0.14884809376387134,0.0,0.0,0.0,0.0,0.0,0.0,nan,nan,nan
35.76414549799938,1526088.9668837201,-4462628.378131173,4279424.896890053,-16.19102570608936,16.570243723168552,-7.14622640961923,0.9019918167265931,-0.3998767207344429,-0.06598723776751768,-0.1488457449223453,0.0,0.0,0.0,0.0,0.0,0.0,nan,nan,nan
35.842179282999496,1526087.7055610125,-4462627.087266402,4279424.340180564,-16.37329856372392,17.10398515085293,-7.661328629912453,0.9019922395003883,-0.39987690816119775,-0.06598610196821425,-0.14884318292855067,0.0,0.0,0.0,0.0,0.0,0.0,nan,nan,nan
35.925055882999914,1526086.5112840356,-4462625.839692763,4279423.781359239,-16.54395573589316,17.60373172176356,-8.143621359878432,0.9019926353387222,-0.3998770836467534,-0.06598503851393818,-0.1488407841216066,0.0,0.0,0.0,0.0,0.0,0.0,nan,nan,nan
35.99688186599997,1526085.156326285,-4462624.3979388615,4279423.114392822,-16.73557029562467,18.164868983616252,-8.685158800353431,0.9019930797938651,-0.39987728068542056,-0.0659838444253736,-0.14883809064619818,0.0,0.0,0.0,0.0,0.0,0.0,nan,nan,nan
36.06683221299954,1526083.9878833094,-4462623.129705201,4279422.508012961,-16.898910804918685,18.64322552429274,-9.146805140343574,0.9019934586735051,-0.3998774486527407,-0.06598282649669712,-0.14883579453019893,0.0,0.0,0.0,0.0,0.0,0.0,nan,nan,nan
36.34943945199939,1526085.7404511143,-4462633.128935382,4279432.382076658,-14.501219837129286,13.362989296097098,-5.106031225252562,0.9019949631649743,-0.3998781156334216,-0.06597878424904795,-0.1488266765342975,0.0,0.0,0.0,0.0,0.0,0.0,42.410904,-71.120858,33.5
36.422722711999995,1526084.5998852784,-4462632.077894902,4279431.980471495,-14.685284453056557,13.901852050865205,-5.626094991425718,0.9019953899570565,-0.3998783048415889,-0.06597763750344363,-0.14882408984920847,0.0,0.0,0.0,0.0,0.0,0.0,nan,nan,nan
36.49385151399929,1526083.5510892102,-4462631.085050139,4279431.578666114,-14.852412187741418,14.391149434318892,-6.098320760594552,0.9019957774841024,-0.3998784766425318,-0.06597659624114224,-0.14882174110014104,0.0,0.0,0.0,0.0,0.0,0.0,nan,nan,nan
36.56726276900008,1526082.4594306913,-4462630.0272946255,4279431.130436983,-15.02440740131369,14.894714644615037,-6.5843148844695385,0.9019961763034248,-0.3998786534496381,-0.06597552461953449,-0.1488193238703532,0.0,0.0,0.0,0.0,0.0,0.0,nan,nan,nan
36.645207099999425,1526081.2932385476,-4462628.871169213,4279430.619363495,-15.206036585534012,15.426504952269138,-7.097547425440475,0.901996597468048,-0.3998788401630046,-0.06597439293702316,-0.14881677116270253,0.0,0.0,0.0,0.0,0.0,0.0,nan,nan,nan
36.71786805099964,1526080.1886607367,-4462627.750576416,4279430.103792369,-15.376009109287095,15.924184508836232,-7.577857780201183,0.9019969916095774,-0.3998790148963222,-0.06597333384834723,-0.1488143822031324,0.0,0.0,0.0,0.0,0.0,0.0,nan,nan,nan
36.79595629300002,1526078.982049287,-4462626.500947646,4279429.509130263,-15.5596243614454,16.461828851532804,-8.096736325183603,0.9019974173927331,-0.39987920365720586,-0.0659721897165576,-0.14881180141395917,0.0,0.0,0.0,0.0,0.0,0.0,nan,nan,nan
36.86765307299993,1526077.866536561,-4462625.320753371,4279428.928652727,-15.727367893352092,16.9530177959873,-8.570779152662997,0.9019978063777532,-0.3998793761045071,-0.06597114444807513,-0.14880944362825027,0.0,0.0,0.0,0.0,0.0,0.0,nan,nan,nan
36.95742482300011,1526076.615101735,-4462623.971792947,4279428.246671381,-15.913537697632572,17.498181699690004,-9.09691100392569,0.9019982380979708,-0.3998795674974465,-0.06596998432297631,-0.14880682676337353,0.0,0.0,0.0,0.0,0.0,0.0,nan,nan,nan
37.13099113699991,1526073.6902637486,-4462620.755704387,4279426.574699293,-16.343546516851085,18.75743157859929,-10.312194947061931,0.9019992352758466,-0.3998800095726542,-0.0659673046113954,-0.148800782205659,0.0,0.0,0.0,0.0,0.0,0.0,nan,nan,nan
37.20564517799994,1526072.475977516,-4462619.362072295,4279425.808527988,-16.51735980036139,19.266476495945405,-10.803462538221336,0.9019996383639105,-0.39988018827220606,-0.06596622136293451,-0.1487983387494723,0.0,0.0,0.0,0.0,0.0,0.0,nan,nan,nan
37.27703126100005,1526071.2912219344,-4462617.980128338,4279425.033618275,-16.685156172817628,19.757917407974936,-11.277739215052422,0.9020000275042885,-0.3998803607883816,-0.0659651755797896,-0.14879597980285234,0.0,0.0,0.0,0.0,0.0,0.0,nan,nan,nan
37.35490046999985,1526076.5312639093,-4462631.619675854,4279437.44804757,-13.589815531569807,12.622983385834022,-5.057476787690093,0.9020004209404394,-0.39988053520898625,-0.06596411823479045,-0.14879359477644982,0.0,0.0,0.0,0.0,0.0,0.0,42.410966,-71.120958,33.5
37.52780230999997,1526074.1093225225,-4462629.370040764,4279436.546717282,-14.00689799155806,13.843950049303658,-6.235872959914349,0.9020013877685555,-0.3998809638293463,-0.06596151984628403,-0.14878773365713993,0.0,0.0,0.0,0.0,0.0,0.0,nan,nan,nan
37.93111860699992,1526068.8733418777,-4462624.194972412,4279434.215657962,-14.88166975596298,16.404976174046695,-8.707584562775965,0.902003415585627,-0.39988186281404564,-0.06595606966676737,-0.14877543982489413,0.0,0.0,0.0,0.0,0.0,0.0,nan,nan,nan
38.00423820699962,1526067.3502610317,-4462622.515987096,4279433.3244706495,-15.121133898256488,17.106170090516727,-9.384312499616925,0.9020039707494351,-0.3998821089327789,-0.06595457746807117,-0.14877207390999306,0.0,0.0,0.0,0.0,0.0,0.0,nan,nan,nan
38.07426146799935,1526066.2888354873,-4462621.315222258,4279432.665740354,-15.28536499598252,17.58709194205651,-9.848451791270202,0.9020043515054263,-0.399882277731935,-0.06595355403189618,-0.14876976537086858,0.0,0.0,0.0,0.0,0.0,0.0,nan,nan,nan
38.151434911999786,1526065.107859803,-4462619.956410875,4279431.90483068,-15.466125005424553,18.11643374605624,-10.359319613853186,0.9020047705880302,-0.39988246352228757,-0.06595242755854412,-0.14876722441338686,0.0,0.0,0.0,0.0,0.0,0.0,nan,nan,nan
38.52930539799945,1526067.6441482343,-4462630.0157302655,4279441.973198241,-11.889335607788649,11.651322877510541,-5.349604112778115,0.902006788848249,-0.39988335827018245,-0.06594700229790229,-0.14875498679001747,0.0,0.0,0.0,0.0,0.0,0.0,42.411021,-71.121051,33.5
38.60278860899962,1526066.706368423,-4462629.096723878,4279441.551244407,-12.073938694152632,12.191680391066884,-5.8711410210041475,0.9020072166421236,-0.39988354792247066,-0.06594585229152579,-0.14875239274968705,0.0,0.0,0.0,0.0,0.0,0.0,nan,nan,nan
38.67597303999992,1526065.8171586012,-4462628.1988427285,4279441.118852261,-12.24629861859786,12.696219737115094,-6.358105443626798,0.9020076160707909,-0.39988372499971564,-0.0659447785186241,-0.14874997066727982,0.0,0.0,0.0,0.0,0.0,0.0,nan,nan,nan
38.75217218799935,1526064.8846843014,-4462627.232109924,4279440.634724762,-12.424495196716101,13.217862899519451,-6.861576097808629,0.9020080290315458,-0.3998839080760913,-0.0659436683489078,-0.14874746648549741,0.0,0.0,0.0,0.0,0.0,0.0,nan,nan,nan
38.82492938499945,1526063.9848143319,-4462626.274778645,4279440.137760807,-12.593989149561738,13.714048668533303,-7.340474451603481,0.9020084218307766,-0.39988408221433247,-0.06594261236195856,-0.1487450845224138,0.0,0.0,0.0,0.0,0.0,0.0,nan,nan,nan
38.92337846800001,1526063.010082366,-4462625.213357878,4279439.569633028,-12.775107168812184,14.244281866665665,-7.852232204779507,0.9020088415746085,-0.39988426829782486,-0.06594148391893977,-0.14874253912200458,0.0,0.0,0.0,0.0,0.0,0.0,nan,nan,nan
39.00164461899931,1526061.7413326132,-4462623.7986981915,4279438.789794742,-13.007507548857417,14.924672442867733,-8.508912789112264,0.9020093801733858,-0.39988450707284395,-0.0659400359161806,-0.14873927289876215,0.0,0.0,0.0,0.0,0.0,0.0,nan,nan,nan
39.07302645299933,1526060.8089887598,-4462622.728937012,4279438.179898303,-13.175229163902976,15.415728734841306,-8.982854656964875,0.9020097688852177,-0.3998846793990336,-0.06593899085860098,-0.14873691558878152,0.0,0.0,0.0,0.0,0.0,0.0,nan,nan,nan
39.747636424999655,1526059.0395616358,-4462628.194556447,4279447.021698863,-11.332815842494899,12.365321788129002,-6.222556813306373,0.9020133979666038,-0.39988628826636424,-0.06592923319794351,-0.14871490548014785,0.0,0.0,0.0,0.0,0.0,0.0,42.411085,-71.121145,33.4
39.82001146999937,1526058.15836196,-4462627.2330727605,4279446.537854855,-11.51479027489791,12.898005063786211,-6.736693684233069,0.9020138195764887,-0.399886475177127,-0.06592809950189328,-0.14871234823060833,0.0,0.0,0.0,0.0,0.0,0.0,nan,nan,nan
39.92323149399999,1526057.3467170955,-4462626.323929014,4279446.063004449,-11.679746788565218,13.380890841032196,-7.202765095405237,0.902014201764607,-0.3998866446111827,-0.06592707179246046,-0.14871003005240416,0.0,0.0,0.0,0.0,0.0,0.0,nan,nan,nan
39.9997218389999,1526056.0712493153,-4462624.86269056,4279445.276438184,-11.935300655217677,14.129012344991038,-7.924834100516723,0.9020147938639836,-0.3998869071044261,-0.06592547959609132,-0.14870643857527854,0.0,0.0,0.0,0.0,0.0,0.0,nan,nan,nan
40.070336077999855,1526055.2288663578,-4462623.865477373,4279444.717110407,-12.100459702399954,14.61253283522785,-8.391514055409937,0.9020151765354791,-0.3998870767527756,-0.06592445054483417,-0.14870411737035508,0.0,0.0,0.0,0.0,0.0,0.0,nan,nan,nan
40.141397714999584,1526054.369303487,-4462622.827467993,4279444.121014548,-12.266681843583774,15.099182181040554,-8.861212282766806,0.9020155616757062,-0.39988724749557886,-0.06592341483819082,-0.1487017811530451,0.0,0.0,0.0,0.0,0.0,0.0,nan,nan,nan
40.21556223300013,1526053.4584996246,-4462621.706350349,4279443.46306756,-12.440421001651906,15.607856529237099,-9.352166639078728,0.9020159642387369,-0.3998874259623697,-0.06592233226084192,-0.14869933921066872,0.0,0.0,0.0,0.0,0.0,0.0,nan,nan,nan
40.28767895500005,1526052.5655103186,-4462620.585998476,4279442.791757097,-12.608377726826204,16.099618622200943,-9.826796179674444,0.9020163534095785,-0.3998875984920505,-0.06592128568056889,-0.14869697846598703,0.0,0.0,0.0,0.0,0.0,0.0,nan,nan,nan
40.360744848999275,1526051.640482931,-4462619.404832391,4279442.070803474,-12.780037418869787,16.602240038079245,-10.311905024881025,0.9020167511662956,-0.3998877748280759,-0.06592021599303682,-0.14869456559884486,0.0,0.0,0.0,0.0,0.0,0.0,nan,nan,nan
40.43217388899939,1526050.7304408762,-4462618.222618588,4279441.336512413,-12.94664268723595,17.090079280132926,-10.782745068007724,0.9020171372171657,-0.39988794597459115,-0.0659191777690002,-0.14869222370311447,0.0,0.0,0.0,0.0,0.0,0.0,nan,nan,nan
40.50827329099957,1526049.7455268335,-4462616.922493182,4279440.516216581,-13.124629329851174,17.61126235467041,-11.285765310143999,0.9020175496462579,-0.3998881288152668,-0.06591806858626224,-0.14868972174763415,0.0,0.0,0.0,0.0,0.0,0.0,nan,nan,nan
40.584928754999964,1526048.791444596,-4462615.642259495,4279439.695808785,-13.29470060393658,18.109285775058286,-11.766431220648002,0.9020179437401855,-0.3998883035274813,-0.0659170086960233,-0.14868733097999853,0.0,0.0,0.0,0.0,0.0,0.0,nan,nan,nan
40.65929976499956,1526047.746586183,-4462614.219012733,4279438.771060269,-13.478565014040534,18.64771878371401,-12.286096499764094,0.902018369801983,-0.3998884924118941,-0.0659158628105639,-0.1486847462351167,0.0,0.0,0.0,0.0,0.0,0.0,nan,nan,nan
40.73210854399986,1526046.7688410084,-4462612.866293282,4279437.879817652,-13.648266764443026,19.144696323505805,-12.76574946166685,0.9020187630517531,-0.3998886667498713,-0.06591480515429735,-0.1486823605065962,0.0,0.0,0.0,0.0,0.0,0.0,nan,nan,nan
40.816211137999744,1526051.5491746368,-4462626.36179651,4279451.487204124,-11.217924913590448,12.980323280834156,-6.75668174141352,0.9020191885721419,-0.39988885539426344,-0.06591366068566112,-0.14867977895760662,0.0,0.0,0.0,0.0,0.0,0.0,42.411141,-71.121226,33.4
40.89052064999942,1526050.655876143,-4462625.3281558575,4279450.949160443,-11.404279113005842,13.525849225124933,-7.283216191942197,0.9020196202459285,-0.3998890467666188,-0.0659124996461487,-0.14867716003011022,0.0,0.0,0.0,0.0,0.0,0.0,nan,nan,nan
40.97291068499999,1526049.8262287392,-4462624.344166814,4279450.419315343,-11.574520864344482,14.024227320306055,-7.764242302240935,0.902020014603338,-0.39988922159564166,-0.06591143895524045,-0.14867476745642513,0.0,0.0,0.0,0.0,0.0,0.0,nan,nan,nan
41.04376583099929,1526048.8883153703,-4462623.207747394,4279449.790158703,-11.764141933675322,14.579357275178364,-8.300042457469663,0.9020204538582248,-0.39988941632889835,-0.06591025748433692,-0.14867210244235599,0.0,0.0,0.0,0.0,0.0,0.0,nan,nan,nan
41.118841229999816,1526048.0043829796,-4462622.112285761,4279449.166511317,-11.939962908219325,15.094106486055699,-8.796865986439387,0.9020208611523902,-0.39988959689312575,-0.06590916195926015,-0.14866963129411698,0.0,0.0,0.0,0.0,0.0,0.0,nan,nan,nan
41.19107478099977,1526047.1459879305,-4462621.02713111,4279448.5340816965,-12.108184685874347,15.586625417345829,-9.272231653250975,0.9020212508489388,-0.3998897696558663,-0.06590811375010511,-0.14866726687520723,0.0,0.0,0.0,0.0,0.0,0.0,nan,nan,nan
41.26308425699972,1526046.270034362,-4462619.899533497,4279447.863292093,-12.277457318922572,16.082238185371132,-9.750581738027618,0.9020216429856064,-0.3998899435003758,-0.06590705896021175,-0.14866488761229232,0.0,0.0,0.0,0.0,0.0,0.0,nan,nan,nan
41.63770536799984,1526041.6750900673,-4462613.880617147,4279444.21405278,-13.153132719137325,18.646214486678453,-12.225243524989281,0.9020236715358442,-0.39989084281010706,-0.06590160218189584,-0.14865257889530176,0.0,0.0,0.0,0.0,0.0,0.0,nan,nan,nan
41.71200363099979,1526040.6934410862,-4462612.489006658,4279443.301654334,-13.327726681218452,19.157517448729102,-12.718726610886089,0.9020240760366605,-0.3998910221359693,-0.06590051402355179,-0.14865012436401567,0.0,0.0,0.0,0.0,0.0,0.0,nan,nan,nan
42.10064911900008,1526037.8806628615,-4462622.701051423,4279460.101725867,-13.079015150883981,12.691625793395382,-3.988789757108563,0.902026098398571,-0.3998919187022521,-0.0658950733374658,-0.14863785194586157,0.0,0.0,0.0,0.0,0.0,0.0,42.411253,-71.121378,33.3
42.17461772799925,1526036.712310946,-4462621.567305103,4279459.745406213,-13.288068759060247,13.303619312929847,-4.579456106146576,0.9020265825121703,-0.39989213332255713,-0.06589377087595455,-0.1486349140163352,0.0,0.0,0.0,0.0,0.0,0.0,nan,nan,nan
42.24757575100011,1526035.7417678512,-4462620.595626216,4279459.410928752,-13.45898973560817,13.804003111935248,-5.062400119739186,0.9020269783285902,-0.39989230879839777,-0.06589270594994184,-0.14863251188963197,0.0,0.0,0.0,0.0,0.0,0.0,nan,nan,nan
42.324036471999534,1526034.7156300726,-4462619.543183993,4279459.024962189,-13.63740090357356,14.326333407971891,-5.566523968884139,0.9020273914967933,-0.39989249196674076,-0.06589159432089069,-0.14863000441606478,0.0,0.0,0.0,0.0,0.0,0.0,nan,nan,nan
43.003929157999664,1526025.583683256,-4462609.949910635,4279455.2974776635,-15.204319414774753,18.91393366537241,-9.99420176077749,0.9020310200174686,-0.39989410058549346,-0.06588183095845095,-0.1486079814460649,0.0,0.0,0.0,0.0,0.0,0.0,nan,nan,nan
43.379518314999586,1526030.6346078713,-4462620.373099725,4279464.5641063545,-10.955569138351226,13.157461507145424,-6.304731154628872,0.9020330775529375,-0.3998950127451409,-0.0658762940296607,-0.14859549193567426,0.0,0.0,0.0,0.0,0.0,0.0,42.411296,-71.121433,33.3
43.855102245000126,1526025.3568685108,-4462614.0346200345,4279461.526863163,-12.08291566441078,16.45767016742857,-9.490080849445217,0.9020356874236721,-0.3998961697695543,-0.06586927005181162,-0.14857964812628946,0.0,0.0,0.0,0.0,0.0,0.0,nan,nan,nan
43.93914884100013,1526024.4613903034,-4462612.814923946,4279460.823542804,-12.256311421016852,16.965388767724825,-9.980117627158789,0.9020360889024212,-0.39989634775565447,-0.06586818947874083,-0.14857721070491262,0.0,0.0,0.0,0.0,0.0,0.0,nan,nan,nan
44.01335423299952,1526023.428990059,-4462611.385858471,4279459.982875859,-12.453385640630652,17.542460642937588,-10.537090384913416,0.90203654521242,-0.39989655004989144,-0.06586696130620667,-0.1485744403471551,0.0,0.0,0.0,0.0,0.0,0.0,nan,nan,nan
44.19006659199931,1526021.2276317545,-4462608.284915279,4279458.120256962,-12.866936815017253,18.753468472913553,-11.70591467315263,0.9020375027645519,-0.39989697455796347,-0.06586438394843004,-0.1485686266663311,0.0,0.0,0.0,0.0,0.0,0.0,nan,nan,nan
44.2643048989994,1526020.270657485,-4462606.890132118,4279457.249633339,-13.04092447526377,19.263002363599057,-12.197695554059807,0.9020379056412494,-0.3998971531638111,-0.06586329953014908,-0.1485661805714108,0.0,0.0,0.0,0.0,0.0,0.0,nan,nan,nan
44.340332803999445,1526019.2783161355,-4462605.424325473,4279456.32145699,-13.218929541244622,19.784320136395998,-12.700847937814347,0.9020383178265795,-0.3998973358964206,-0.06586219003695575,-0.14856367791564412,0.0,0.0,0.0,0.0,0.0,0.0,nan,nan,nan
44.419167266999466,1526026.447649483,-4462618.289592677,4279466.616012771,-9.996917702997642,14.315345812466184,-8.50373139546813,0.9020387151177117,-0.39989751202604007,-0.06586112061680907,-0.1485612656516364,0.0,0.0,0.0,0.0,0.0,0.0,42.41133,-71.121473,33.3
44.49231674099974,1526025.662036557,-4462617.164613854,4279465.94774266,-10.180806227007665,14.853692521144685,-9.023352825681332,0.9020391407826103,-0.39989770073449715,-0.06585997480094627,-0.14855868106374184,0.0,0.0,0.0,0.0,0.0,0.0,nan,nan,nan
44.57078821799951,1526024.8637563542,-4462615.999931174,4279465.24021874,-10.364278654530947,15.390841344642325,-9.54181605629244,0.902039565491132,-0.3998978890189672,-0.0658588315390768,-0.14855610223682555,0.0,0.0,0.0,0.0,0.0,0.0,nan,nan,nan
44.64312505699945,1526024.1138083339,-4462614.886266502,4279464.549783226,-10.533585780771741,15.88653733990575,-10.02026663907531,0.9020399574158203,-0.39989806276950074,-0.06585777650907404,-0.14855372243230194,0.0,0.0,0.0,0.0,0.0,0.0,nan,nan,nan
45.02930043099968,1526020.1572268417,-4462608.919031704,4279460.786012526,-11.412433631012382,18.45971016160567,-12.503909270964341,0.9020419917995862,-0.3998989646653886,-0.06585229983128128,-0.14854136882856417,0.0,0.0,0.0,0.0,0.0,0.0,nan,nan,nan
45.10322337599973,1526019.193452562,-4462607.3601184655,4279459.730063677,-11.609993015170055,19.03824731934,-13.062306789118114,0.9020424491656643,-0.3998991674278133,-0.0658510685111523,-0.14853859137085654,0.0,0.0,0.0,0.0,0.0,0.0,nan,nan,nan
45.175474383999244,1526018.3569731845,-4462605.988446558,4279458.788947672,-11.778535097250032,19.531829601434822,-13.538704867347617,0.902042839361508,-0.39989934041190445,-0.06585001800791312,-0.14853622177723919,0.0,0.0,0.0,0.0,0.0,0.0,nan,nan,nan
45.55384526799935,1526022.8569485378,-4462616.413982121,4279469.192015343,-8.272686127253635,13.364656950861107,-8.39498992469061,0.9020448591541173,-0.3999002358391484,-0.06584457995395061,-0.14852395529629953,0.0,0.0,0.0,0.0,0.0,0.0,42.411368,-71.12151,33.3
45.62562833599986,1526022.2173859573,-4462615.380758528,4279468.542997438,-8.453600645889464,13.894247250482941,-8.906178806520753,0.9020452778057699,-0.399900421438449,-0.06584345272591363,-0.14852141263649407,0.0,0.0,0.0,0.0,0.0,0.0,nan,nan,nan
46.01025064499936,1526019.052596022,-4462610.1791437715,4279465.2087749895,-9.329644477278773,16.458781627424663,-11.381595210174792,0.9020473050111599,-0.3999013201519738,-0.06583799415403911,-0.1485090998738186,0.0,0.0,0.0,0.0,0.0,0.0,nan,nan,nan
46.38372363399958,1526015.4730908214,-4462603.864402136,4279460.841997741,-10.227303950227837,19.08706520766113,-13.91849917756167,0.9020493823916094,-0.3999022411094236,-0.06583239999558897,-0.14849648127192994,0.0,0.0,0.0,0.0,0.0,0.0,nan,nan,nan
46.45786244499959,1526014.7145613262,-4462602.448769824,4279459.809702992,-10.400801974262059,19.595148597232406,-14.408908449502604,0.9020497839488191,-0.39990241913030744,-0.06583131858960968,-0.1484940419717824,0.0,0.0,0.0,0.0,0.0,0.0,nan,nan,nan
46.53183738699954,1526013.9437139174,-4462600.996490513,4279458.741797866,-10.57417088571412,20.102871933868848,-14.898968419908249,0.9020501852131678,-0.3999025970213584,-0.06583023795408782,-0.1484916044095362,0.0,0.0,0.0,0.0,0.0,0.0,nan,nan,nan
46.61354223999933,1526020.453986811,-4462615.412005557,4279471.129586593,-7.317088887730013,13.134255728388727,-9.051541922434387,0.9020505984954111,-0.3999027802402584,-0.06582912493441191,-0.14848909379917186,0.0,0.0,0.0,0.0,0.0,0.0,42.411391,-71.121536,33.2
46.68741081099961,1526019.8742578975,-4462614.371385725,4279470.412437923,-7.502497155913844,13.67698246019152,-9.575421804271402,0.9020510274397086,-0.39990297040255934,-0.06582796971446529,-0.14848648799872302,0.0,0.0,0.0,0.0,0.0,0.0,nan,nan,nan
46.75967915199999,1526019.3322289842,-4462613.383272063,4279469.720647528,-7.671558572347029,14.1718774836746,-10.0531291376483,0.902051418571932,-0.39990314380177233,-0.0658269163107146,-0.14848411186249513,0.0,0.0,0.0,0.0,0.0,0.0,nan,nan,nan
46.83273887999985,1526018.771876137,-4462612.348117104,4279468.986337872,-7.842478453072285,14.672230107105914,-10.536102818781826,0.9020518140095418,-0.39990331910967647,-0.06582585129402527,-0.14848170953125486,0.0,0.0,0.0,0.0,0.0,0.0,nan,nan,nan
46.932481703999656,1526018.2121035447,-4462611.30085732,4279468.234302451,-8.00949498987081,15.161173134044098,-11.008061508073684,0.9020522004221999,-0.39990349041658185,-0.06582481056678896,-0.14847936198912023,0.0,0.0,0.0,0.0,0.0,0.0,nan,nan,nan
47.008750807999604,1526017.374188128,-4462609.71476722,4279467.082691212,-8.254279037367693,15.877806015403754,-11.699798405373494,0.9020527667653211,-0.399903741491399,-0.06582328520135657,-0.14847592126085027,0.0,0.0,0.0,0.0,0.0,0.0,nan,nan,nan
47.08076211799926,1526016.7819505983,-4462608.575548087,4279466.2432405865,-8.422153885575716,16.36930315991734,-12.174218398839296,0.9020531551775349,-0.39990391368476014,-0.06582223904677435,-0.14847356147638857,0.0,0.0,0.0,0.0,0.0,0.0,nan,nan,nan
47.15428486899964,1526016.1625632935,-4462607.371706563,4279465.347916608,-8.59421978788033,16.87308800323912,-12.660497443294089,0.9020535532922572,-0.3999040901794987,-0.06582116674160482,-0.14847114270470768,0.0,0.0,0.0,0.0,0.0,0.0,nan,nan,nan
47.231866588999765,1526015.4930997156,-4462606.057344335,4279464.36170237,-8.776467757677466,17.406703297256993,-13.175568517055629,0.9020539749715979,-0.3999042771210531,-0.0658200309465647,-0.1484685807205297,0.0,0.0,0.0,0.0,0.0,0.0,nan,nan,nan
47.30399664400011,1526014.8628390366,-4462604.807324288,4279463.415530973,-8.944475142927384,17.898641031034895,-13.650408598398135,0.9020543637078792,-0.39990444945808185,-0.06581898386595784,-0.1484662188472576,0.0,0.0,0.0,0.0,0.0,0.0,nan,nan,nan
47.38207592799972,1526014.1653231855,-4462603.411536874,4279462.35103292,-9.126912589290008,18.432849387655327,-14.166048342042467,0.9020547858382885,-0.3999046365996068,-0.0658178468172211,-0.1484636540351478,0.0,0.0,0.0,0.0,0.0,0.0,nan,nan,nan
47.45448151399978,1526013.5018579457,-4462602.071592537,4279461.321256359,-9.296969688708963,18.930824539456992,-14.646712478582659,0.9020551793289714,-0.39990481104438697,-0.06581678689416473,-0.1484612631934868,0.0,0.0,0.0,0.0,0.0,0.0,nan,nan,nan
47.53217127099924,1526012.7807534784,-4462600.603253648,4279460.185207716,-9.478414248144622,19.462163876204954,-15.159579140532362,0.902055599174675,-0.39990499717304173,-0.06581565596078352,-0.14845871217563,0.0,0.0,0.0,0.0,0.0,0.0,nan,nan,nan
47.60477264099973,1526012.0927877084,-4462599.190643668,4279459.084889534,-9.648201131173773,19.959383522924057,-15.639510502109147,0.9020559920519096,-0.3999051713458641,-0.06581459765396874,-0.1484563249796843,0.0,0.0,0.0,0.0,0.0,0.0,nan,nan,nan
47.68931413500013,1526019.3594855652,-4462615.640628578,4279472.770136927,-6.12558031891468,12.173807278030164,-9.270016931346252,0.9020564191208352,-0.3999053606767634,-0.06581344722400184,-0.1484537299838717,0.0,0.0,0.0,0.0,0.0,0.0,42.411403,-71.121551,33.2
47.762762554999426,1526018.8760772168,-4462614.679916325,4279472.0385811655,-6.31026669176022,12.714375224041552,-9.791826404722988,0.9020568462682156,-0.3999055500424437,-0.0658122965620349,-0.14845113446474245,0.0,0.0,0.0,0.0,0.0,0.0,nan,nan,nan
47.83611006299998,1526018.410479237,-4462613.74179632,4279471.316099088,-6.4829366610134995,13.219790811237573,-10.279701458734115,0.9020572456303327,-0.3999057270901853,-0.06581122073012256,-0.14844870773787697,0.0,0.0,0.0,0.0,0.0,0.0,nan,nan,nan
47.92346332299985,1526017.920850804,-4462612.743362154,4279470.539717275,-6.659676614027683,13.737137736497186,-10.779091956101093,0.9020576544117652,-0.39990590831375733,-0.06581011950503818,-0.1484462237322748,0.0,0.0,0.0,0.0,0.0,0.0,nan,nan,nan
47.99599340499935,1526017.359056022,-4462611.584529263,4279469.630418225,-6.857078172308105,14.314985441661214,-11.336881255514008,0.9020581109878695,-0.39990611072596577,-0.0658088895024849,-0.1484434492465894,0.0,0.0,0.0,0.0,0.0,0.0,nan,nan,nan
48.068262578999565,1526016.8659519558,-4462610.5551144965,4279468.815163958,-7.025349459938925,14.80758083649593,-11.812375569429172,0.9020585001948157,-0.39990628327165273,-0.0658078409718123,-0.14844108410244067,0.0,0.0,0.0,0.0,0.0,0.0,nan,nan,nan
48.44112621699969,1526014.2472879519,-4462605.035662526,4279464.412159826,-7.897535621096841,17.360896154073632,-14.277040538053775,0.9020605174997548,-0.399907177596047,-0.06580240604022342,-0.1484288246645603,0.0,0.0,0.0,0.0,0.0,0.0,nan,nan,nan
48.51512465799988,1526013.6593420366,-4462603.743200109,4279463.349280458,-8.071706198484451,17.87086945915244,-14.769298680902695,0.9020609203874211,-0.3999073562067574,-0.06580132054328683,-0.14842637613654375,0.0,0.0,0.0,0.0,0.0,0.0,nan,nan,nan
48.587876855000104,1526013.0718783035,-4462602.442547257,4279462.274361831,-8.241973443715457,18.36943151189236,-15.250540203869239,0.9020613142519038,-0.3999075308172528,-0.06580025933966138,-0.14842398240633542,0.0,0.0,0.0,0.0,0.0,0.0,nan,nan,nan
48.65987616499933,1526012.4787802405,-4462601.120670364,4279461.176922496,-8.41031734509841,18.862378946615593,-15.726360459938057,0.9020617036729636,-0.39990770345786186,-0.06579921009083219,-0.14842161564225897,0.0,0.0,0.0,0.0,0.0,0.0,nan,nan,nan
48.74172484599967,1526018.4009520144,-4462615.636782594,4279473.988659243,-5.083103967254724,10.861276311503437,-8.746062009534072,0.9020621179635119,-0.39990788712377,-0.0657980938152517,-0.14841909768763298,0.0,0.0,0.0,0.0,0.0,0.0,42.411415,-71.121564,33.1
48.815807783999844,1526017.997697589,-4462614.775132357,4279473.294813862,-5.268778876999168,11.40468148762656,-9.270622050018837,0.9020625472622789,-0.39990807744321666,-0.06579693708060312,-0.1484164884705092,0.0,0.0,0.0,0.0,0.0,0.0,nan,nan,nan
48.88770126500003,1526017.619156554,-4462613.955750858,4279472.6287561385,-5.436926790731583,11.896809953555389,-9.74568177822881,0.9020629360434376,-0.39990824980014067,-0.06579588950160078,-0.148414125473019,0.0,0.0,0.0,0.0,0.0,0.0,nan,nan,nan
48.97026520899999,1526017.2234618447,-4462613.089911583,4279471.919474063,-5.607253223241676,12.395331524478834,-10.226911166463973,0.9020633298672894,-0.39990842439262336,-0.06579482831749002,-0.14841173178682943,0.0,0.0,0.0,0.0,0.0,0.0,nan,nan,nan
49.04124726699956,1526016.770230774,-4462612.088004026,4279471.092838684,-5.7964141504511915,12.948998263159899,-10.761370982434155,0.9020637672457289,-0.39990861829400154,-0.06579364975209319,-0.14840907332663836,0.0,0.0,0.0,0.0,0.0,0.0,nan,nan,nan
49.116800230999615,1526016.3319592862,-4462611.1089199595,4279470.279162858,-5.973356139427956,13.466920634517015,-11.261324419335626,0.9020641763783865,-0.399908799673281,-0.06579254727850394,-0.14840658650481528,0.0,0.0,0.0,0.0,0.0,0.0,nan,nan,nan
49.19220895199942,1526015.88104526,-4462610.092335101,4279469.429073056,-6.150004073261836,13.984000957514064,-11.760463155931653,0.9020645848373222,-0.39990898075388176,-0.06579144660143911,-0.14840410373536697,0.0,0.0,0.0,0.0,0.0,0.0,nan,nan,nan
49.26751205099936,1526015.418276051,-4462609.040081317,4279468.5441337675,-6.326083428215649,14.499435531375584,-12.25801139019431,0.9020649919877193,-0.39990916125437287,-0.06579034943168031,-0.14840162887726027,0.0,0.0,0.0,0.0,0.0,0.0,nan,nan,nan
49.339399864999905,1526014.9636187018,-4462607.998002912,4279467.66314713,-6.494255897204213,14.9917420849157,-12.733232412364506,0.9020653808609352,-0.3999093336521084,-0.06578930149686388,-0.14839926507716925,0.0,0.0,0.0,0.0,0.0,0.0,nan,nan,nan
49.412019151000095,1526014.4917804813,-4462606.908782373,4279466.738017936,-6.664258729714056,15.489423912654999,-13.21364045225077,0.902065773972206,-0.3999095079286852,-0.06578824212391984,-0.14839687547638272,0.0,0.0,0.0,0.0,0.0,0.0,nan,nan,nan
49.49026272099945,1526013.973816206,-4462605.704902308,4279465.711017938,-6.846114504201677,16.02182360240606,-13.727559503127713,0.9020661944978609,-0.39990969435878027,-0.06578710885413347,-0.1483943191883558,0.0,0.0,0.0,0.0,0.0,0.0,nan,nan,nan
49.567912980000074,1526013.441214999,-4462604.458466453,4279464.643066948,-7.028136095397255,16.554728520555276,-14.241964268069491,0.9020666154134798,-0.39990988096175667,-0.06578597451335874,-0.1483917604845275,0.0,0.0,0.0,0.0,0.0,0.0,nan,nan,nan
49.640123156999834,1526012.9310323808,-4462603.2567346385,4279463.6092220545,-7.197974612240164,17.05198351045433,-14.721954869707753,0.9020670081626816,-0.3999100550778187,-0.06578491606116628,-0.14838937296065705,0.0,0.0,0.0,0.0,0.0,0.0,nan,nan,nan
49.71193418199982,1526012.4143333815,-4462602.032676026,4279462.552422085,-7.365918706453439,17.54370904137988,-15.196606288178131,0.9020673965367073,-0.39991022725425,-0.06578386938279628,-0.14838701199470047,0.0,0.0,0.0,0.0,0.0,0.0,nan,nan,nan
49.79550933799965,1526017.0585223578,-4462615.442522529,4279475.375586334,-4.894007861388777,10.55887134777219,-8.585137488898958,0.9020678185841469,-0.39991041435899227,-0.06578273193428352,-0.14838444628082603,0.0,0.0,0.0,0.0,0.0,0.0,42.41143,-71.121581,32.9
49.86519806999968,1526016.6920994688,-4462614.651961448,4279474.732802143,-5.06924603057454,11.071720554225557,-9.08020340732793,0.9020682236505567,-0.3999105939355969,-0.06578164023188206,-0.14838198375529912,0.0,0.0,0.0,0.0,0.0,0.0,nan,nan,nan
49.95142854000005,1526016.304544351,-4462613.805503821,4279474.038600426,-5.24817766082132,11.595397706102766,-9.58571993423336,0.9020686372606439,-0.39991077729983876,-0.0657805254840477,-0.14837946924677145,0.0,0.0,0.0,0.0,0.0,0.0,nan,nan,nan
50.02387266599999,1526015.8729106088,-4462612.851846146,4279473.250227693,-5.440659529078082,12.15875275020863,-10.129536304615566,0.9020690821993997,-0.3999109745529043,-0.06577932627858865,-0.14837676422931345,0.0,0.0,0.0,0.0,0.0,0.0,nan,nan,nan
50.39779205499963,1526013.8381208926,-4462608.304510492,4279469.4618126685,-6.31591704402596,14.720553017148703,-12.602476358987413,0.9020711054021217,-0.399911871491941,-0.06577387302973693,-0.14836446347364607,0.0,0.0,0.0,0.0,0.0,0.0,nan,nan,nan
50.76907075300005,1526011.4925446487,-4462602.837659168,4279464.781562919,-7.184902199365308,17.26444896916025,-15.05808769687656,0.9020731142574999,-0.3999127620704225,-0.06576845799259959,-0.14835224891117743,0.0,0.0,0.0,0.0,0.0,0.0,nan,nan,nan
50.84922116599955,1526015.3951270306,-4462614.343447105,4279476.729364185,-4.839205212325752,10.508850784140659,-8.127782092528143,0.9020735192073912,-0.39991294159537144,-0.06576736636095219,-0.1483497865452487,0.0,0.0,0.0,0.0,0.0,0.0,42.41145,-71.121596,32.8
50.933504627999355,1526015.0091364454,-4462613.5052273385,4279476.081066121,-5.0258923425169035,11.055204456564553,-8.65519160583335,0.9020739506363376,-0.3999131328591827,-0.06576620332870362,-0.14834716312278767,0.0,0.0,0.0,0.0,0.0,0.0,nan,nan,nan
51.005570018999606,1526014.597419476,-4462612.599594077,4279475.372039939,-5.217619055347851,11.616328209588108,-9.196856931157589,0.902074393718646,-0.3999133292892361,-0.06576500885970941,-0.14834446878925375,0.0,0.0,0.0,0.0,0.0,0.0,nan,nan,nan
51.286197958999765,1526013.1328552202,-4462609.3389384225,4279472.7905199425,-5.874547472048073,13.539026158688095,-11.052872812067802,0.9020759118782404,-0.39991400232935687,-0.06576091600969265,-0.14833523665087012,0.0,0.0,0.0,0.0,0.0,0.0,nan,nan,nan
51.35801785900003,1526012.712208783,-4462608.3694776865,4279471.99907999,-6.042108580162156,14.029509712763538,-11.526339092604703,0.902076299142306,-0.39991417401371365,-0.06575987193150451,-0.14833288155007804,0.0,0.0,0.0,0.0,0.0,0.0,nan,nan,nan
51.43019674599964,1526012.274546624,-4462607.35324545,4279471.164165757,-6.211607827048395,14.525683537665564,-12.005296527032598,0.9020766908913461,-0.3999143476863777,-0.06575881574433749,-0.14833049913536825,0.0,0.0,0.0,0.0,0.0,0.0,nan,nan,nan
51.499801230999765,1526011.842318192,-4462606.3424904905,4279470.328789371,-6.374429919043495,15.002327867022906,-12.465400460509438,0.9020770672136275,-0.3999145145199534,-0.0657578011325554,-0.14832821050120393,0.0,0.0,0.0,0.0,0.0,0.0,nan,nan,nan
51.57473751099951,1526011.364075886,-4462605.216939192,4279469.39357133,-6.549978743126384,15.516245426783874,-12.96148247317958,0.9020774729559471,-0.39991469439620675,-0.06575670718266935,-0.14832574290608283,0.0,0.0,0.0,0.0,0.0,0.0,nan,nan,nan
51.647296133000054,1526010.8891814214,-4462604.091961638,4279468.453822283,-6.7196212834447975,16.012890190358508,-13.44088936723429,0.9020778650531824,-0.39991486822323496,-0.0657556500044778,-0.14832335825594406,0.0,0.0,0.0,0.0,0.0,0.0,nan,nan,nan
51.719801589999406,1526010.4019811666,-4462602.930961062,4279467.479302374,-6.889260787811043,16.50954326342482,-13.920302565967145,0.902078257149073,-0.39991504204966694,-0.06575459281245584,-0.14832097357460833,0.0,0.0,0.0,0.0,0.0,0.0,nan,nan,nan
51.797990702999414,1526009.8642373804,-4462601.642302588,4279466.392748035,-7.07188308529599,17.044224536389592,-14.436422077856973,0.9020786792585538,-0.3999152291819137,-0.06575345467651254,-0.1483184063101142,0.0,0.0,0.0,0.0,0.0,0.0,nan,nan,nan
51.87590361899947,1526014.094100471,-4462613.272423457,4279477.960037856,-4.977975947809246,11.39774375913354,-8.893066754034438,0.9020790703698139,-0.3999154025718331,-0.06575240010317045,-0.1483160275356685,0.0,0.0,0.0,0.0,0.0,0.0,42.411466,-71.121606,32.7
51.95861718299966,1526013.7050372728,-4462612.38161107,4279477.264983274,-5.16089320762967,11.933096189925354,-9.409855226211933,0.9020794930142948,-0.39991558994125953,-0.06575126048566006,-0.14831345692924092,0.0,0.0,0.0,0.0,0.0,0.0,nan,nan,nan
52.030582785999286,1526013.282746897,-4462611.405184805,4279476.495021343,-5.352389020732328,12.493576782317836,-9.95089842481033,0.9020799354869644,-0.3999157861010441,-0.06575006738173499,-0.14831076567485896,0.0,0.0,0.0,0.0,0.0,0.0,nan,nan,nan
52.102249734,1526012.8974258583,-4462610.505766253,4279475.778651419,-5.52086306470955,12.986695243335644,-10.426913679274703,0.9020803247720665,-0.3999159586813796,-0.06574901767685883,-0.14830839788208888,0.0,0.0,0.0,0.0,0.0,0.0,nan,nan,nan
52.17294888499964,1526012.50843876,-4462609.590754082,4279475.04399547,-5.685744956545463,13.469316170058597,-10.892793837937194,0.9020807057625204,-0.39991612758447914,-0.06574799032178393,-0.1483060805032009,0.0,0.0,0.0,0.0,0.0,0.0,nan,nan,nan
52.250061622999965,1526012.0703329728,-4462608.552897934,4279474.20466904,-5.866056459617037,13.997118411204212,-11.402286325817656,0.9020811224115589,-0.3999163122959681,-0.06574686679312185,-0.14830354618798197,0.0,0.0,0.0,0.0,0.0,0.0,nan,nan,nan
52.62278989100014,1526009.883623461,-4462603.335145228,4279469.95420058,-6.738349785070586,16.55056232256081,-13.867140472964895,0.9020831380004722,-0.3999172058596029,-0.06574143131212427,-0.1482912855108143,0.0,0.0,0.0,0.0,0.0,0.0,nan,nan,nan
52.70116145599968,1526009.3551059146,-4462602.037013954,4279468.86654154,-6.921857890872953,17.08783694310355,-14.385765222739987,0.9020835620740687,-0.3999173938625939,-0.06574028764517013,-0.14828870577015874,0.0,0.0,0.0,0.0,0.0,0.0,nan,nan,nan
52.77386269699946,1526008.8525234007,-4462600.796299657,4279467.822019367,-7.091729091289214,17.5852040904999,-14.865865908527544,0.9020839546401704,-0.3999175678974829,-0.06573922893129279,-0.14828631765601227,0.0,0.0,0.0,0.0,0.0,0.0,nan,nan,nan
52.8509817260001,1526008.3058992056,-4462599.440847706,4279466.676171593,-7.272055159215617,18.1132004286153,-15.375530643964025,0.9020843713728939,-0.3999177526460716,-0.06573810502314675,-0.14828378248480098,0.0,0.0,0.0,0.0,0.0,0.0,nan,nan,nan
52.93995634099974,1526011.7421088899,-4462612.020990821,4279479.746630851,-5.3813431140088515,11.386892012713757,-8.481712089575542,0.9020847686230636,-0.3999179287575313,-0.06573703364014011,-0.14828136579321963,0.0,0.0,0.0,0.0,0.0,0.0,42.411491,-71.121631,32.6
53.01136329899964,1526011.2724700356,-4462611.027237625,4279479.006417587,-5.585592300827076,11.984683068054492,-9.058769502151781,0.9020852404461993,-0.3999181379291502,-0.06573576111067682,-0.14827849538065765,0.0,0.0,0.0,0.0,0.0,0.0,nan,nan,nan
53.385470679999344,1526009.1839522982,-4462606.546025639,4279475.619238616,-6.460656448380254,14.5459041676807,-11.531147187651833,0.9020872618478559,-0.3999190340697272,-0.0657303090077564,-0.14826619720983855,0.0,0.0,0.0,0.0,0.0,0.0,nan,nan,nan
53.461110765999365,1526008.6939346874,-4462605.442770999,4279474.744642476,-6.638131492093048,15.065447821547806,-12.032659717679849,0.902087671860319,-0.39991921583904755,-0.06572920306986901,-0.1482637025736857,0.0,0.0,0.0,0.0,0.0,0.0,nan,nan,nan
53.533235612999306,1526008.2166080864,-4462604.359463292,4279473.879412768,-6.806382679609548,15.55800723927018,-12.508122741628704,0.9020880605694002,-0.39991938816401773,-0.06572815457653206,-0.148261337513754,0.0,0.0,0.0,0.0,0.0,0.0,nan,nan,nan
53.60771091100014,1526007.7080039994,-4462603.196897736,4279472.94474855,-6.981221820086722,16.069870632444385,-13.002217963190944,0.9020884645042453,-0.39991956723897,-0.06572706499543186,-0.14825887977319277,0.0,0.0,0.0,0.0,0.0,0.0,nan,nan,nan
53.99669738600005,1526009.9042128494,-4462611.019105914,4279480.818684899,-5.261129828531403,11.159456937842648,-8.593937091567707,0.9020904815915329,-0.39992046146687366,-0.06572162379036005,-0.14824660618437546,0.0,0.0,0.0,0.0,0.0,0.0,42.411505,-71.121646,32.5
54.371993304999705,1526007.8491274407,-4462606.660035169,4279477.461749166,-6.175334789784414,13.835085413341861,-11.176772542583727,0.9020925928447259,-0.39992139744100247,-0.06571592807192593,-0.1482337584961967,0.0,0.0,0.0,0.0,0.0,0.0,nan,nan,nan
54.74356257599993,1526005.5537301865,-4462601.517477211,4279473.307296999,-7.045132491663559,16.381220966458034,-13.634558617846613,0.9020946017066309,-0.3999222880223775,-0.06571050811297496,-0.14822153283171743,0.0,0.0,0.0,0.0,0.0,0.0,nan,nan,nan
54.81620861099964,1526005.0412752454,-4462600.32592579,4279472.31553468,-7.215316705930148,16.879485134398063,-14.115524476647945,0.9020949948019183,-0.39992246229186845,-0.06570944747848544,-0.1482191403852946,0.0,0.0,0.0,0.0,0.0,0.0,nan,nan,nan
54.887701398999525,1526004.5231861612,-4462599.113910108,4279471.301982615,-7.383308665266511,17.37134792606226,-14.590309492679603,0.9020953828391484,-0.3999226343189894,-0.0657084004742062,-0.1482167786841928,0.0,0.0,0.0,0.0,0.0,0.0,nan,nan,nan
54.97048750199974,1526003.9863113966,-4462597.850758485,4279470.241053251,-7.553425891728428,17.869450363793973,-15.071115807056257,0.9020957757910132,-0.3999228085248973,-0.06570734019177059,-0.1482143870318891,0.0,0.0,0.0,0.0,0.0,0.0,nan,nan,nan
55.04827137999928,1526008.6426812538,-4462610.653616443,4279480.730711815,-5.242916529103822,11.661775127507347,-10.051063717198547,0.9020962223052431,-0.39992300647641194,-0.06570613536334724,-0.14821166933085256,0.0,0.0,0.0,0.0,0.0,0.0,42.411506,-71.121658,32.5
55.42263733499931,1526006.653615874,-4462606.229355053,4279476.917524487,-6.1307980244210025,14.260444272452105,-12.559609977157868,0.902098272351939,-0.39992391531608906,-0.06570060343534424,-0.14819919110061133,0.0,0.0,0.0,0.0,0.0,0.0,nan,nan,nan
55.49397608699928,1526006.215597956,-4462605.21051051,4279476.020196897,-6.297977945125866,14.749838430033195,-13.032022864756971,0.9020986583994706,-0.3999240864611243,-0.06569956165572141,-0.14819684118463497,0.0,0.0,0.0,0.0,0.0,0.0,nan,nan,nan
55.569494886999564,1526005.7399121604,-4462604.096456334,4279475.035889201,-6.474709954236539,15.267212547358884,-13.531443079171984,0.902099066510072,-0.3999242673872993,-0.06569846031872223,-0.14819435692658942,0.0,0.0,0.0,0.0,0.0,0.0,nan,nan,nan
55.64071201799925,1526005.2787096223,-4462603.008951685,4279474.072025809,-6.641378526859089,15.755144058110284,-14.002440640124394,0.9020994513881065,-0.3999244380138657,-0.06569742166030945,-0.1481920140510477,0.0,0.0,0.0,0.0,0.0,0.0,nan,nan,nan
55.712979900999926,1526004.798695641,-4462601.870228845,4279473.059981811,-6.8104868453732585,16.25023490333371,-14.480347379183671,0.9020998419055997,-0.39992461114055255,-0.06569636776562801,-0.1481896368074397,0.0,0.0,0.0,0.0,0.0,0.0,nan,nan,nan
55.78490263099957,1526004.3085808076,-4462600.70078511,4279472.017907551,-6.978861141624501,16.74319380113973,-14.956194463771734,0.9021002307336391,-0.39992478351826016,-0.0656953184130467,-0.14818726980933222,0.0,0.0,0.0,0.0,0.0,0.0,nan,nan,nan
55.86222011099926,1526003.7697476984,-4462599.408054535,4279470.863149976,-7.159500620858931,17.27208034370293,-15.466720235245266,0.9021006478914827,-0.39992496845531583,-0.06569419258605351,-0.14818473030982587,0.0,0.0,0.0,0.0,0.0,0.0,nan,nan,nan
55.943856591999975,1526003.255873453,-4462598.168348343,4279469.753023781,-7.3274208340106295,17.763744826826976,-15.94131432816059,0.9021010356824043,-0.39992514037324167,-0.06569314599683723,-0.1481823695449711,0.0,0.0,0.0,0.0,0.0,0.0,nan,nan,nan
56.126371394999296,1526007.707381472,-4462610.494862829,4279480.664303713,-4.99984298490212,11.609435592145132,-10.577151936883661,0.90210204534107,-0.399925587981512,-0.0656904210000264,-0.1481762228385075,0.0,0.0,0.0,0.0,0.0,0.0,42.41151,-71.121668,32.4
56.20330513999943,1526007.294472849,-4462609.536105509,4279479.790796833,-5.193118884958819,12.175114878314155,-11.12321607618183,0.9021024915062237,-0.399925785778272,-0.0656892167950762,-0.14817350654382364,0.0,0.0,0.0,0.0,0.0,0.0,nan,nan,nan
56.27601317199969,1526006.9209355933,-4462608.660358371,4279478.990712009,-5.361452413797546,12.6678123350951,-11.598827106612505,0.9021028801003863,-0.3999259580522958,-0.06568816795643012,-0.14817114070498688,0.0,0.0,0.0,0.0,0.0,0.0,nan,nan,nan
56.35405683299996,1526006.5004278303,-4462607.666800466,4279478.08099642,-5.5449977459765485,13.205051851345576,-12.117433652663298,0.9021033038164488,-0.39992614589678255,-0.06568702430209657,-0.14816856099279926,0.0,0.0,0.0,0.0,0.0,0.0,nan,nan,nan
56.425777611999365,1526006.101499322,-4462606.716778144,4279477.209221543,-5.7133547193362135,13.697853299816177,-12.593141512868472,0.902103692476422,-0.39992631819998187,-0.06568597524986342,-0.1481661946721795,0.0,0.0,0.0,0.0,0.0,0.0,nan,nan,nan
56.50463949099958,1526005.6502938007,-4462605.635006165,4279476.214692888,-5.89815705326574,14.23881090904356,-13.115333294710098,0.9021041191070783,-0.3999265073365849,-0.06568482368918518,-0.14816359712584992,0.0,0.0,0.0,0.0,0.0,0.0,nan,nan,nan
56.576302438999846,1526005.2293221778,-4462604.6187335765,4279475.278606735,-6.065168511366078,14.72770909313717,-13.587269741028313,0.9021045046725048,-0.3999266782678902,-0.06568378295386353,-0.14816124956547738,0.0,0.0,0.0,0.0,0.0,0.0,nan,nan,nan
56.648260166999535,1526004.7901647906,-4462603.552352282,4279474.294800619,-6.234592164508895,15.223685476155826,-14.066037118098176,0.9021048958122828,-0.3999268516704523,-0.06568272715470068,-0.14815886802597877,0.0,0.0,0.0,0.0,0.0,0.0,nan,nan,nan
56.71882290799931,1526004.3533494624,-4462602.485732527,4279473.309289385,-6.3985277743939815,15.703612571132767,-14.529310405615547,0.9021052742876474,-0.39992701945854653,-0.06568170552385312,-0.14815656355908577,0.0,0.0,0.0,0.0,0.0,0.0,nan,nan,nan
56.78820136000013,1526003.9067214294,-4462601.389593878,4279472.295119007,-6.561846730017368,16.18175038392045,-14.990854892965924,0.9021056513446166,-0.3999271866178287,-0.06568068770549852,-0.14815426769193682,0.0,0.0,0.0,0.0,0.0,0.0,nan,nan,nan
56.86514014699969,1526003.4025958087,-4462600.146401939,4279471.143419746,-6.741597438730287,16.7080118628306,-15.498851197159725,0.9021060663432555,-0.3999273705976521,-0.0656795674496039,-0.1481517407590168,0.0,0.0,0.0,0.0,0.0,0.0,nan,nan,nan
56.947934456999974,1526002.9146810942,-4462598.937180399,4279470.021709703,-6.910923963642823,17.20377233533026,-15.97740327858751,0.9021064572812599,-0.3999275439107627,-0.06567851212553336,-0.14814936029117187,0.0,0.0,0.0,0.0,0.0,0.0,nan,nan,nan
57.019577948000006,1526002.349637496,-4462597.530583904,4279468.715382288,-7.102207032839855,17.76383734570336,-16.51802587194518,0.9021068989180097,-0.3999277396999619,-0.06567731992094633,-0.14814667106540405,0.0,0.0,0.0,0.0,0.0,0.0,nan,nan,nan
57.090079565999986,1526001.847317739,-4462596.274196077,4279467.547107314,-7.2676707230274475,18.248323723678006,-16.98569161229662,0.9021072809493053,-0.399927909064494,-0.0656762886041885,-0.14814434475024799,0.0,0.0,0.0,0.0,0.0,0.0,nan,nan,nan
57.17101836499933,1526007.5063738541,-4462611.207377359,4279481.223467565,-4.402763660385663,10.771584813391659,-10.154017091719183,0.9021076899645052,-0.3999280903917013,-0.06567518442430172,-0.14814185407957264,0.0,0.0,0.0,0.0,0.0,0.0,42.411511,-71.121673,32.4
