# t [sec],r_ecef_X,r_ecef_Y,r_ecef_Z,v_ecef_X,v_ecef_Y,v_ecef_Z,q_e2b_scalar,q_e2b_i,q_e2b_j,q_e2b_k,accel_X [m/s^2],accel_Y [m/s^2],accel_Z [m/s^2],gyro_X [rad/s],gyro_Y [rad/s],gyro_Z [rad/s],gps_lat [deg],gps_long [deg],gps_alt [m]
0.0,1524659.491,-4462794.455,4279704.81,-28.14203675,32.65606434,-15.24849249,0.606502018,0.479938569,0.580070868,0.25560137,1.565416667,0.38875,10.0085633,0.013799009,0.027870726,-0.088084586,nan,nan,nan
0.09529038,1524657.467,-4462792.107,4279703.713,-28.61377586,33.77608437,-15.71319941,0.605196901,0.478244701,0.582238585,0.256937635,1.465416667,-0.14125,9.5785633,0.005072363,-0.027761643,-0.088084586,nan,nan,nan
0.18058643,1524655.227,-4462789.462,4279702.483,-29.0849414,35.0117361,-16.2532283,0.60438392,0.476452151,0.583419042,0.259491131,1.225416667,0.54875,9.5685633,-0.012380929,0.012599096,-0.085902924,nan,nan,nan
0.2667892,1524653.125,-4462786.932,4279701.308,-29.58214827,36.20124996,-16.76545054,0.603893352,0.474969277,0.584064954,0.261887637,1.035416667,0.12875,10.5885633,-0.015653422,0.023507403,-0.076085447,nan,nan,nan
0.34864288,1524658.837,-4462808.369,4279720.484,-27.09987183,24.59694545,10.79200193,0.85824856,-0.134113504,0.166145855,0.466710331,2.285416667,0.07875,9.8685633,-0.021107576,-0.001581705,-0.081539601,42.414591,-71.137948,8.6
0.43653575,1524656.774,-4462806.496,4279721.306,-27.51929154,24.93771267,11.02066433,0.856322066,-0.133935269,0.167284282,0.469882787,1.935416667,0.04875,10.2185633,0.002890702,-0.047396597,-0.090266247,nan,nan,nan
0.51916353,1524654.724,-4462804.638,4279722.127,-27.93532518,25.32041744,11.20519905,0.854788682,-0.134784173,0.166912587,0.472556584,1.285416667,0.14875,9.7185633,0.008344855,0.002781618,-0.085902924,nan,nan,nan
0.60180552,1524652.721,-4462802.823,4279722.93,-28.28914557,25.51770464,11.43522272,0.853432851,-0.137153871,0.165859282,0.474691357,3.755416667,-0.29125,10.2885633,0.037797287,0.042051527,-0.083721263,nan,nan,nan
0.68963022,1524650.718,-4462801.016,4279723.74,-28.68807472,25.88404628,11.63246995,0.852251187,-0.136538649,0.165125594,0.477240663,1.245416667,0.29875,10.0185633,-0.032015883,-0.005945028,-0.077176278,nan,nan,nan
0.77247878,1524648.647,-4462799.148,4279724.58,-29.04852066,26.13490025,11.83638321,0.850327541,-0.135852177,0.165935214,0.480575451,3.025416667,-0.07125,9.9185633,-0.01347176,-0.049578259,-0.097902063,nan,nan,nan
1.16128699,1524646.379,-4462797.108,4279725.504,-29.49467507,26.51822944,11.99625297,0.848669916,-0.136524491,0.165346625,0.483508977,1.355416667,-0.20125,9.3985633,0.00070904,0.003872449,-0.089175416,nan,nan,nan
1.24410735,1524644.248,-4462795.191,4279726.37,-29.84109208,26.80716217,12.20272971,0.846878495,-0.13717063,0.166214918,0.486162148,2.705416667,0.38875,9.8185633,0.021434825,-0.029943305,-0.085902924,nan,nan,nan
1.62759972,1524641.891,-4462793.074,4279727.335,-30.30220943,27.19716627,12.42239591,0.844654228,-0.141462617,0.167989303,0.488187625,1.405416667,0.03875,10.1085633,0.113064611,-0.001581705,-0.082630432,nan,nan,nan
2.00909155,1524639.718,-4462791.124,4279728.225,-30.77080669,27.64756687,12.54768407,0.843788343,-0.142265336,0.165594022,0.49026567,-0.244583333,-0.17125,9.3685633,-0.020016745,0.055141496,-0.073903786,nan,nan,nan
2.09465346,1524637.307,-4462788.958,4279729.208,-31.19527528,27.9866808,12.71730609,0.84263588,-0.143703924,0.163357438,0.492573147,2.005416667,-0.08125,9.4285633,-0.002563452,0.052959834,-0.078267109,nan,nan,nan
2.18210077,1524635.052,-4462786.934,4279730.128,-31.62662618,28.37102009,12.86694388,0.840912705,-0.145611161,0.163679441,0.494845686,0.835416667,-0.07125,9.4985633,0.045433102,0.001690788,-0.083721263,nan,nan,nan
2.25433899,1524632.333,-4462784.495,4279731.234,-32.16358185,28.82831312,13.09172449,0.839262661,-0.149418459,0.163427009,0.496592311,0.775416667,-0.03125,10.1085633,0.07052221,0.036597373,-0.068449632,nan,nan,nan
2.32896478,1524630.019,-4462782.421,4279732.176,-32.59411795,29.11015996,13.23228067,0.838451707,-0.149886925,0.161260818,0.498525419,2.015416667,-0.68125,9.5285633,-0.024380068,0.045324019,-0.067358801,nan,nan,nan
2.40487549,1524645.29,-4462811.553,4279727.536,2.212361854,-42.18624485,5.487103632,-0.566492069,0.479201082,0.379071444,0.552953795,1.512416667,-0.05825,9.7195633,0.003981532,-0.00921752,-0.055359662,42.414661,-71.138118,8.4
2.47939729,1524645.46,-4462814.788,4279727.957,2.795922998,-41.59648867,5.152821124,-0.567030485,0.479428708,0.38030165,0.551357596,2.065416667,-0.51125,10.0185633,0.030161471,-0.010308351,-0.044451354,nan,nan,nan
2.69001927,1524645.664,-4462817.826,4279728.334,3.321175293,-41.12536759,4.842545403,-0.568041401,0.479397128,0.380623482,0.55012101,0.815416667,-0.18125,9.7985633,0.003981532,-0.021216659,-0.0389972,nan,nan,nan
3.06325237,1524645.901,-4462820.763,4279728.679,3.812157321,-40.61580256,4.553765823,-0.56829429,0.480914973,0.381775642,0.547731457,1.495416667,0.05875,9.4585633,0.063977225,-0.039760782,-0.041178862,nan,nan,nan
3.13792895,1524646.201,-4462823.957,4279729.037,4.382421447,-40.06941214,4.164729203,-0.566983328,0.481382887,0.383838058,0.547237396,1.295416667,-0.85125,9.6185633,0.05634141,0.030052388,-0.009544769,nan,nan,nan
3.3168167,1524646.516,-4462826.839,4279729.337,4.87542588,-39.76471706,3.82565992,-0.568627207,0.479495455,0.382617043,0.548043253,-1.434583333,-0.31125,9.6385633,-0.078921607,0.002781618,-0.016089754,nan,nan,nan
3.38960615,1524646.899,-4462829.963,4279729.638,5.417436251,-39.27177296,3.514122978,-0.569694716,0.479072077,0.381860592,0.547832424,0.655416667,0.21875,9.6085633,-0.02765256,-0.017944166,-0.012817262,nan,nan,nan
3.46193899,1524647.344,-4462833.183,4279729.926,6.008590336,-38.71666491,3.19069528,-0.568572684,0.481101972,0.383644717,0.54596953,1.195416667,0.10875,9.8485633,0.082521349,-0.013580843,-0.012817262,nan,nan,nan
3.53878866,1524647.801,-4462836.13,4279730.168,6.550651514,-38.23604903,2.855317139,-0.567825378,0.482174353,0.385207249,0.544699559,0.705416667,-0.22125,9.7085633,0.060704733,-0.000490874,-0.017180585,nan,nan,nan
3.61027708,1524648.274,-4462838.891,4279730.375,7.05748886,-37.82568714,2.518508529,-0.568410894,0.481968356,0.38513933,0.544319076,0.045416667,-0.36125,9.6285633,-0.008017606,-0.00921752,-0.016089754,nan,nan,nan
3.69804641,1524648.791,-4462841.662,4279730.559,7.575159748,-37.45024543,2.202220569,-0.566756286,0.481080066,0.38746159,0.545181437,-0.464583333,-0.01125,9.8285633,0.033433963,0.078048942,-0.001908954,nan,nan,nan
3.77067849,1524649.329,-4462844.324,4279730.716,8.110190861,-36.93431045,1.856524427,-0.567712433,0.480487121,0.386869024,0.545130332,1.595416667,-0.75125,9.8785633,-0.030925053,-0.011399182,-0.013908092,nan,nan,nan
3.84349931,1524649.954,-4462847.168,4279730.859,8.670845512,-36.30138452,1.49432169,-0.567320322,0.479159002,0.387720997,0.546101394,2.545416667,-0.61125,9.5585633,-0.012380929,0.047505681,-0.004090615,nan,nan,nan
3.91868875,1524650.575,-4462849.769,4279730.966,9.189088697,-35.69901991,1.136908302,-0.568943485,0.480371538,0.386749186,0.544032686,2.665416667,-0.89125,9.4285633,0.005072363,-0.07903069,-0.031361385,nan,nan,nan
3.99062749,1524632.568,-4462812.577,4279732.483,-1.994114673,31.07388519,4.575192673,0.257807282,-0.425386588,-0.358670356,-0.789896976,0.880416667,-0.36825,9.6745633,0.013799009,0.058413988,-0.011726431,42.414736,-71.138278,8.2
4.0645136,1524632.413,-4462810.159,4279732.839,-1.502243216,31.85081149,4.342503132,0.258302683,-0.423102186,-0.358334582,-0.791113514,-0.374583333,0.04875,9.8885633,-0.038560868,0.052959834,-0.019362246,nan,nan,nan
4.4434659,1524632.277,-4462807.28,4279733.232,-0.99781474,32.80770023,4.125738889,0.259484815,-0.422706687,-0.358518583,-0.790854673,0.675416667,0.19875,9.6885633,-0.008017606,-0.003763366,-0.026998062,nan,nan,nan
4.51473141,1524632.205,-4462804.908,4279733.53,-0.619121762,33.65212143,3.960182548,0.26048529,-0.423316991,-0.359608598,-0.789703612,1.685416667,-0.35125,9.8185633,0.02797981,-0.028852474,-0.036815539,nan,nan,nan
4.89934719,1524632.159,-4462802.417,4279733.823,-0.140172069,34.38874414,3.730596584,0.262117122,-0.423259964,-0.359166328,-0.789395444,-0.544583333,-0.05125,9.9585633,-0.025470899,-0.021216659,-0.032452216,nan,nan,nan
4.96851812,1524632.149,-4462799.943,4279734.092,0.246104382,35.21235931,3.559008078,0.263281335,-0.423062244,-0.359286592,-0.789059201,1.445416667,-0.29125,9.8085633,-0.009108437,-0.010308351,-0.031361385,nan,nan,nan
5.04493447,1524632.166,-4462797.481,4279734.34,0.662578429,35.93287849,3.376203317,0.263330525,-0.422904337,-0.360882952,-0.788398663,0.225416667,0.14875,9.8285633,0.041069779,0.007144942,-0.026998062,nan,nan,nan
5.7293876,1524632.213,-4462794.948,4279734.578,1.049035789,36.66741006,3.182015941,0.264162178,-0.422251962,-0.360959787,-0.788434941,0.475416667,0.04875,9.4085633,-0.01347176,0.007144942,-0.025907231,nan,nan,nan
5.80570849,1524632.289,-4462792.285,4279734.81,1.44032315,37.50868461,3.051999055,0.264367306,-0.420614849,-0.361627079,-0.788935316,1.815416667,0.11875,10.0985633,-0.004745114,0.044233188,-0.0248164,nan,nan,nan
5.87724487,1524632.392,-4462789.595,4279735.028,1.807523062,38.29776694,2.892431784,0.265039216,-0.420503068,-0.36285819,-0.788203856,1.295416667,0.14875,9.5085633,0.025798148,-0.003763366,-0.035724708,nan,nan,nan
5.94853467,1524632.519,-4462786.906,4279735.232,2.207890996,39.10415016,2.702609684,0.265978045,-0.420296492,-0.363074818,-0.787897973,1.125416667,-0.56125,9.9885633,-0.004745114,-0.007035859,-0.028088893,nan,nan,nan
6.02051444,1524632.675,-4462784.141,4279735.423,2.672311617,39.75317794,2.475556483,0.266289655,-0.418520136,-0.363606567,-0.788492854,-1.214583333,0.30875,9.7285633,-0.011290099,0.047505681,-0.026998062,nan,nan,nan
6.09866006,1524632.864,-4462781.338,4279735.597,3.055855033,40.54029277,2.347618193,0.267354207,-0.419608637,-0.364723227,-0.787037031,1.415416667,0.35875,9.9985633,0.035615625,-0.044124105,-0.036815539,nan,nan,nan
6.47259397,1524633.096,-4462778.251,4279735.776,3.526568359,41.31502628,2.151271146,0.267369787,-0.417701338,-0.364893192,-0.787966972,-0.004583333,0.27875,9.9885633,-0.018925914,0.050778173,-0.013908092,nan,nan,nan
6.55062796,1524607.459,-4462805.78,4279746.691,-13.59912179,9.934087972,24.43273024,-0.754911228,-0.04751992,0.383794679,0.529672105,0.603416667,0.05075,9.8315633,-0.015653422,0.042051527,-0.02372557,42.414905,-71.138568,7.7
6.6226649,1524606.271,-4462804.911,4279748.827,-13.42984737,10.83520147,24.49734971,-0.75654559,-0.047120265,0.382214147,0.528517547,-1.374583333,0.38875,9.0685633,-0.000381791,-0.045214936,-0.03790637,nan,nan,nan
6.71171135,1524599.898,-4462799.77,4279760.452,-12.09676821,16.49208901,24.47111995,-0.756969565,-0.044769818,0.386428884,0.525038532,0.520416667,0.09475,9.7425633,0.022525656,0.008235772,-0.007363108,nan,nan,nan
6.788921,1524598.975,-4462798.511,4279762.319,-11.83465562,17.32680617,24.60282995,-0.757003978,-0.048529482,0.382951117,0.527198548,-1.294583333,-0.15125,10.8585633,-0.144371454,-0.020125828,0.000272708,nan,nan,nan
6.8612171,1524598.124,-4462797.266,4279764.087,-11.65809054,18.29289453,24.69059565,-0.756240976,-0.057041138,0.377055106,0.531672212,0.795416667,1.47875,11.1785633,-0.314541056,0.002781618,0.006817692,nan,nan,nan
6.93392443,1524597.277,-4462795.937,4279765.881,-11.67547648,19.06955679,24.85048774,-0.755644592,-0.056647682,0.378418737,0.531593407,-2.324583333,2.63875,9.1885633,0.02797981,0.028961557,0.013362677,nan,nan,nan
7.01049077,1524596.318,-4462794.37,4279767.923,-11.59920311,20.13708708,25.08573435,-0.756183743,-0.043028042,0.391984803,0.522190243,-0.834583333,2.86875,11.3685633,0.513399508,0.081321435,-0.035724708,nan,nan,nan
7.08200677,1524595.457,-4462792.876,4279769.784,-11.40407758,20.9080251,25.08052628,-0.75767189,-0.03458768,0.396305598,0.517376916,-0.764583333,-0.24125,8.9085633,0.285415874,-0.040851613,-0.0248164,nan,nan,nan
7.15565281,1524596.389,-4462804.242,4279752.439,-3.951159259,2.427252273,14.92859908,-0.004315996,0.011754655,-0.470711796,-0.882198167,0.145416667,0.32875,9.3485633,0.043251441,0.067140635,-0.014998923,42.414963,-71.13868,7.5
7.22718685,1524596.078,-4462804.051,4279753.614,-4.167117504,3.630088336,14.88802806,-0.002199135,0.009793477,-0.471378814,-0.881873724,0.145416667,0.36875,10.4085633,0.019253163,-0.069213213,-0.02372557,nan,nan,nan
7.30400986,1524595.779,-4462803.791,4279754.681,-4.225992755,4.697432537,14.84547529,-0.001867823,0.00989288,-0.474532657,-0.880180323,-1.714583333,0.52875,9.9985633,0.099974641,-0.001581705,-0.008453939,nan,nan,nan
7.37535257,1524595.463,-4462803.44,4279755.79,-4.369352585,5.666689129,14.8580239,-0.001668193,0.010520454,-0.477633314,-0.87849471,-0.604583333,2.29875,8.8285633,0.094520487,0.012599096,-0.011726431,nan,nan,nan
7.45397546,1524595.16,-4462803.047,4279756.821,-4.526170675,6.607962348,14.80982614,-0.001741397,0.010766032,-0.476357656,-0.879183965,-0.264583333,1.30875,8.8585633,-0.041833361,0.007144942,-0.001908954,nan,nan,nan
7.52619498,1524594.815,-4462802.542,4279757.952,-4.639924806,7.707775929,14.80840013,-0.001368756,0.010474217,-0.475426998,-0.879691757,-1.064583333,1.39875,9.8985633,-0.02765256,-0.011399182,-0.005181446,nan,nan,nan
7.60422656,1524594.489,-4462802.001,4279758.991,-4.781099785,8.77147021,14.78066021,-0.000762313,0.010387355,-0.475713291,-0.879538736,-0.534583333,0.63875,10.3585633,0.009435686,-0.010308351,-0.013908092,nan,nan,nan
7.69425472,1524594.141,-4462801.362,4279760.068,-4.936184595,9.855939195,14.72944117,0.000217209,0.010360708,-0.474118089,-0.880400277,-0.404583333,0.54875,9.9485633,-0.049469176,-0.013580843,-0.02372557,nan,nan,nan
8.17405655,1524593.784,-4462800.65,4279761.132,-5.142141305,10.94533166,14.68416362,0.000412621,0.010715429,-0.473547532,-0.880702983,0.325416667,0.46875,10.1785633,-0.017835083,0.006054111,-0.009544769,nan,nan,nan
8.54264162,1524593.422,-4462799.88,4279762.166,-5.313384676,11.93098129,14.73166074,0.00149652,0.009812801,-0.476976583,-0.878859948,-0.114583333,2.13875,9.9785633,0.110882949,-0.03648829,-0.013908092,nan,nan,nan
8.61604122,1524593.023,-4462798.983,4279763.273,-5.550019431,13.07900771,14.71079122,0.001672959,0.010344681,-0.477824937,-0.878392577,0.635416667,0.72875,10.5285633,0.025798148,0.010417434,-0.0106356,nan,nan,nan
8.6977797,1524592.471,-4462797.682,4279764.736,-5.599041199,14.54004478,14.68338954,0.00327765,0.008677189,-0.47498187,-0.879946696,-2.024583333,1.03875,9.9885633,-0.064740807,-0.045214936,-0.012817262,nan,nan,nan
8.97133372,1524592.067,-4462796.634,4279765.794,-5.644742069,15.53317359,14.61647166,0.00403088,0.008343982,-0.475308792,-0.879770244,-1.824583333,0.91875,8.8985633,0.010526517,-0.017944166,-0.013908092,nan,nan,nan
9.04270626,1524591.652,-4462795.492,4279766.869,-5.734832829,16.63460113,14.58728072,0.005622182,0.007139058,-0.474221956,-0.880358428,-1.234583333,0.72875,10.1885633,-0.033106714,-0.049578259,-0.022634739,nan,nan,nan
9.11317505,1524585.887,-4462802.289,4279756.25,-20.99305931,18.2058127,1.758723922,-0.837359433,0.409157319,-0.342529004,0.118715417,0.175416667,1.65875,9.5985633,-0.009108437,-0.049578259,-0.0106356,42.41502,-71.138781,7.1
9.1885789,1524584.264,-4462800.882,4279756.385,-21.56657798,18.25248174,1.674309936,-0.837588248,0.409845986,-0.340827103,0.119620569,0.465416667,1.78875,9.5885633,0.025798148,0.04641485,-0.005181446,nan,nan,nan
9.25937355,1524582.721,-4462799.576,4279756.505,-22.06935125,18.19078564,1.591612091,-0.837275162,0.410451398,-0.341101493,0.11895262,0.795416667,0.64875,10.4985633,0.010526517,-0.019034997,-0.017180585,nan,nan,nan
9.32996521,1524581.006,-4462798.162,4279756.629,-22.63096087,18.18461565,1.440015605,-0.837780151,0.410261493,-0.340111616,0.118886563,0.065416667,0.76875,9.6485633,-0.006926775,0.025689065,-0.011726431,nan,nan,nan
9.4045013,1524579.417,-4462796.885,4279756.73,-23.26102425,18.17244487,1.241618304,-0.837855077,0.409608047,-0.341319858,0.117136129,-1.824583333,1.00875,10.1685633,-0.037470037,-0.046305767,-0.021543908,nan,nan,nan
9.47485031,1524577.666,-4462795.517,4279756.824,-23.86354279,18.22088509,1.163027277,-0.837582832,0.4103378,-0.341281002,0.116641193,0.045416667,2.11875,9.8585633,0.01488984,-0.00921752,-0.017180585,nan,nan,nan
9.54496473,1524576.007,-4462794.251,4279756.904,-24.47088613,18.21084325,0.973979988,-0.837751073,0.410615386,-0.340601665,0.116441622,-1.544583333,0.95875,10.0885633,0.005072363,0.014780757,-0.016089754,nan,nan,nan
9.61543327,1524574.283,-4462792.967,4279756.973,-25.05617012,18.26883339,0.849290298,-0.837469085,0.411905723,-0.339810563,0.116223877,-0.684583333,1.94875,9.5485633,0.034524794,0.009326603,-0.025907231,nan,nan,nan
9.70736761,1524572.416,-4462791.606,4279757.036,-25.67140586,18.33658993,0.685232115,-0.838640986,0.411019901,-0.33811551,0.115852667,-0.954583333,1.73875,9.2685633,-0.030925053,0.047505681,-0.022634739,nan,nan,nan
9.780719,1524570.582,-4462790.296,4279757.085,-26.25025191,18.41039175,0.516016996,-0.83903582,0.411092,-0.337327671,0.115031748,-0.994583333,1.61875,9.0285633,-0.008017606,0.012599096,-0.030270554,nan,nan,nan
9.85534308,1524568.645,-4462788.938,4279757.123,-26.89668877,18.44368748,0.363886089,-0.839112586,0.411654906,-0.336662455,0.114405849,-1.244583333,1.73875,9.9185633,0.008344855,0.007144942,-0.026998062,nan,nan,nan
9.92592416,1524566.458,-4462787.438,4279757.153,-27.56230366,18.42958437,0.187274075,-0.840159658,0.410051595,-0.336566836,0.11274841,-0.844583333,1.00875,10.0785633,-0.057104991,-0.001581705,-0.0248164,nan,nan,nan
9.99584172,1524564.407,-4462786.067,4279757.167,-28.2209453,18.51865111,0.023867713,-0.840911029,0.409086823,-0.336469903,0.110926179,-1.474583333,2.12875,9.3385633,-0.046196684,-0.008126689,-0.035724708,nan,nan,nan
10.0714195,1524562.37,-4462784.73,4279757.169,-28.79333057,18.52607143,-0.110929446,-0.840640085,0.411037081,-0.334824249,0.110749667,-0.474583333,1.16875,9.8885633,0.051978087,0.027870726,-0.040088031,nan,nan,nan
10.1427157,1524575.294,-4462801.523,4279758.775,-1.708593306,-9.588489727,-0.190419027,0.80891938,-0.108319361,0.542746361,-0.198350047,0.135416667,1.08875,10.0685633,-0.022198406,0.031143219,-0.044451354,42.41507,-71.138886,6.8
10.2209906,1524575.162,-4462802.261,4279758.76,-2.577409706,-9.259125341,-0.39735277,0.810012767,-0.109295785,0.541341802,-0.197187225,0.125416667,1.44875,9.9885633,0.008344855,0.036597373,-0.047723847,nan,nan,nan
10.589633,1524574.979,-4462802.919,4279758.732,-3.362512808,-8.90147498,-0.519220783,0.811541112,-0.109855405,0.539327087,-0.196109938,1.215416667,1.99875,9.8785633,0.002890702,0.062777312,-0.047723847,nan,nan,nan
10.6643787,1524574.736,-4462803.562,4279758.694,-4.189583418,-8.634261244,-0.675994188,0.812201736,-0.109455013,0.53934265,-0.193539264,0.335416667,1.00875,10.5685633,-0.049469176,0.003872449,-0.055359662,nan,nan,nan
10.7445946,1524574.405,-4462804.245,4279758.641,-5.060269911,-8.253587169,-0.892573879,0.813691301,-0.108370264,0.538359364,-0.190608364,0.185416667,1.78875,9.5385633,-0.061468315,0.037688204,-0.055359662,nan,nan,nan
10.8176629,1524574.045,-4462804.833,4279758.577,-5.839713577,-7.973843232,-1.056645461,0.814575332,-0.108595961,0.537619673,-0.188783034,0.395416667,0.90875,10.0085633,-0.021107576,0.023507403,-0.05208717,nan,nan,nan
10.8893226,1524571.856,-4462807.821,4279758.181,-10.07170557,-6.347292531,-2.123251183,0.815881296,-0.111960766,0.539168134,-0.176352548,-0.164583333,1.42875,9.9275633,-0.023289237,-0.013580843,-0.064086308,nan,nan,nan
10.9667142,1524571.062,-4462808.321,4279758.014,-10.95801596,-5.955666634,-2.199135856,0.815705896,-0.113969769,0.539566907,-0.174649182,1.705416667,1.87875,10.4085633,0.017071502,-0.024489151,-0.060813816,nan,nan,nan
11.0382026,1524570.232,-4462808.772,4279757.847,-11.79099706,-5.628002421,-2.37659989,0.815557521,-0.116313313,0.539787992,-0.173107098,0.435416667,1.20875,9.8885633,0.02797981,-0.02230749,-0.065177139,nan,nan,nan
11.1164781,1524569.4,-4462809.169,4279757.68,-12.60671836,-5.345443131,-2.576458374,0.815544616,-0.116811336,0.540510495,-0.170559365,-0.264583333,1.17875,10.2985633,-0.030925053,-0.027761643,-0.064086308,nan,nan,nan
11.495529,1524566.104,-4462801.912,4279762.525,-16.31489273,8.139933241,3.276358797,0.852905198,0.30644218,0.415893749,0.075354521,0.665416667,1.30875,9.8485633,0.006163194,0.009326603,-0.062995478,42.415118,-71.138995,6.4
11.5677755,1524564.861,-4462801.291,4279762.774,-16.90954133,9.154810147,3.09341958,0.851802155,0.307433738,0.416945982,0.077933526,0.485416667,1.14875,9.3785633,-0.057104991,-0.016853336,-0.057541324,nan,nan,nan
11.6411483,1524563.554,-4462800.584,4279763.014,-17.56804213,10.22431695,2.841141361,0.850862933,0.307638219,0.418234653,0.080441101,-0.554583333,1.63875,9.7585633,-0.036379207,-0.019034997,-0.065177139,nan,nan,nan
11.728282,1524562.299,-4462799.854,4279763.217,-18.14647739,11.24382778,2.661731084,0.850265757,0.306832496,0.419706686,0.082147792,0.345416667,1.77875,10.0885633,-0.002563452,-0.025579982,-0.064086308,nan,nan,nan
11.801309,1524559.065,-4462797.85,4279763.691,-19.50542819,13.82309923,2.185307334,0.85058483,0.306695552,0.417740988,0.089082839,0.555416667,2.19875,9.8185633,-0.032015883,0.044233188,-0.059722985,nan,nan,nan
11.8774943,1524557.646,-4462796.844,4279763.85,-20.21533336,14.8419304,1.931035801,0.851017508,0.306705256,0.416148876,0.092310347,-1.574583333,1.26875,10.5685633,-0.037470037,0.069322296,-0.060813816,nan,nan,nan
11.9488269,1524556.08,-4462795.694,4279763.999,-20.89496497,15.94531046,1.630480842,0.851279485,0.30405311,0.417280707,0.093550829,-1.284583333,2.00875,9.8985633,0.049796425,-0.005945028,-0.064086308,nan,nan,nan
12.0225784,1524554.607,-4462794.57,4279764.114,-21.46247249,16.94595388,1.482431702,0.851931608,0.302908797,0.416189192,0.096152758,0.535416667,1.50875,10.2085633,-0.000381791,0.059504819,-0.065177139,nan,nan,nan
12.0941764,1524552.788,-4462793.134,4279764.24,-22.20986948,18.17662874,1.159874538,0.85287169,0.300440717,0.415590867,0.098129953,-1.284583333,2.19875,10.1085633,0.035615625,0.040960696,-0.057541324,nan,nan,nan
12.1706704,1524551.228,-4462791.857,4279764.322,-22.80947144,19.17826905,0.932963636,0.853715691,0.298133169,0.415140823,0.099720766,-0.734583333,1.88875,10.0385633,0.043251441,0.040960696,-0.059722985,nan,nan,nan
12.2424911,1524549.48,-4462790.388,4279764.393,-23.43057191,20.26031039,0.775120881,0.853964805,0.295650414,0.416083273,0.101042836,0.395416667,1.47875,10.2185633,0.045433102,-0.001581705,-0.062995478,nan,nan,nan
12.3210184,1524547.799,-4462788.934,4279764.449,-24.00675013,21.22817732,0.644583265,0.852780576,0.295515969,0.418169699,0.102809073,0.575416667,0.93875,9.9085633,-0.021107576,-0.048487428,-0.064086308,nan,nan,nan
12.3937878,1524555.199,-4462800.341,4279767.257,-13.5368246,12.80234318,7.6980035,-0.506444598,-0.511882072,-0.013994244,0.693754117,-0.874583333,1.48875,10.2885633,-0.049469176,-0.034306628,-0.062995478,42.415171,-71.139104,6.1
12.4721577,1524554.184,-4462799.381,4279767.835,-14.35003634,13.59514309,7.487388191,-0.507733402,-0.512080653,-0.01497258,0.692644223,-0.294583333,1.99875,9.8285633,-0.003654283,0.006054111,-0.05208717,nan,nan,nan
12.5487756,1524553.092,-4462798.345,4279768.405,-15.18808112,14.4144823,7.327911324,-0.509519696,-0.511988098,-0.014793456,0.69140366,-0.674583333,1.62875,10.3785633,0.02797981,0.018053249,-0.046633016,nan,nan,nan
12.6214529,1524547.414,-4462792.957,4279771.144,-19.23527148,18.44173012,6.460950407,-0.518146566,-0.518316875,-0.00693407,0.680311452,-0.521583333,1.64075,10.1445633,0.034524794,0.075867281,-0.040088031,nan,nan,nan
12.7081042,1524545.754,-4462791.365,4279771.702,-20.21377875,19.47450025,6.080324486,-0.519118167,-0.517163295,-0.009543786,0.680417057,1.435416667,2.70875,10.1285633,-0.015653422,-0.05066909,-0.045542185,nan,nan,nan
12.780467,1524544.303,-4462789.967,4279772.138,-20.89052679,20.30348732,5.898799064,-0.520101088,-0.516157532,-0.011305679,0.680403147,0.005416667,0.52875,9.4185633,-0.004745114,-0.044124105,-0.044451354,nan,nan,nan
12.85233,1524542.778,-4462788.485,4279772.569,-21.657317,21.15916432,5.659579992,-0.521064324,-0.517097621,-0.011428448,0.678948755,0.595416667,1.60875,9.9285633,-0.002563452,0.036597373,-0.040088031,nan,nan,nan
12.9257746,1524541.224,-4462786.967,4279772.975,-22.3641582,21.91799481,5.517555765,-0.522435549,-0.517697409,-0.010909499,0.677444812,-1.104583333,0.95875,9.4685633,0.020343994,0.040960696,-0.040088031,nan,nan,nan
12.997067,1524539.517,-4462785.295,4279773.396,-23.19392769,22.71467752,5.352211203,-0.524164629,-0.518051725,-0.010476438,0.675843249,-1.184583333,1.84875,10.0385633,0.025798148,0.034415711,-0.046633016,nan,nan,nan
13.2741714,1524544.18,-4462798.176,4279771.432,-27.2265095,-7.058551111,10.0312196,0.173473384,0.63129297,-0.580266091,-0.48442485,-0.112583333,1.51875,9.9605633,0.01488984,-0.008126689,-0.067358801,42.415225,-71.139215,5.8
13.9594356,1524542.061,-4462798.726,4279772.212,-27.88573886,-5.922997924,9.241932722,0.173897637,0.632996958,-0.577775248,-0.485026006,-0.624583333,2.24875,10.2185633,-0.04074253,-0.005945028,-0.068449632,nan,nan,nan
14.0308356,1524523.385,-4462802.692,4279778.402,-33.15129111,3.664874688,2.165145578,0.181062118,0.643747064,-0.568804727,-0.478818764,-0.214583333,1.59575,9.9605633,0.005617779,0.010308351,-0.049141927,nan,nan,nan
14.1007524,1524520.631,-4462802.388,4279778.582,-33.86445775,4.772105107,1.261844769,0.181192222,0.645976407,-0.566465115,-0.478540629,0.545416667,2.46875,9.6285633,-0.030925053,0.018053249,-0.069540462,nan,nan,nan
14.178547,1524534.246,-4462797.592,4279775.901,-3.471815551,16.64662302,-18.76388735,0.243679838,-0.285697178,0.586522245,0.717627282,-0.514583333,1.79875,10.3185633,0.00070904,0.043142357,-0.068449632,42.415275,-71.139326,5.6
14.2496677,1524533.976,-4462796.299,4279774.443,-4.12141445,17.74721319,-19.00982405,0.242229357,-0.286845771,0.585201993,0.718737135,-1.114583333,1.87875,9.8485633,-0.023289237,-0.000490874,-0.060813816,nan,nan,nan
14.3285183,1524532.437,-4462789.673,4279767.345,-7.496972216,22.84716358,-20.26071777,0.230109917,-0.292682342,0.58508631,0.720458523,-0.263583333,1.76775,9.9375633,0.020343994,-0.017944166,-0.067358801,nan,nan,nan
14.4004885,1524530.284,-4462783.113,4279761.528,-9.98174277,27.04280634,-21.37087773,0.220244065,-0.291970732,0.582436531,0.725956838,-1.084583333,1.12875,10.2585633,-0.016744253,-0.05066909,-0.060813816,nan,nan,nan
14.4791795,1524529.565,-4462781.164,4279759.988,-10.62284464,27.96076409,-21.65153463,0.218644031,-0.292989638,0.582210814,0.726211008,0.465416667,1.45875,9.0985633,0.010526517,-0.005945028,-0.05208717,nan,nan,nan
14.5505151,1524528.784,-4462779.108,4279758.396,-11.28198595,28.98108756,-21.91253187,0.217950211,-0.294904683,0.581569498,0.726158284,-0.294583333,1.54875,10.0085633,0.005072363,0.031143219,-0.048814678,nan,nan,nan
14.934559,1524527.983,-4462777.051,4279756.84,-11.91509977,29.94275989,-22.19483777,0.216945816,-0.296274177,0.581421541,0.726020053,-0.064583333,1.20875,9.6785633,0.015980671,0.013689926,-0.043360524,nan,nan,nan
15.0094172,1524523.829,-4462795.706,4279778.655,-16.34909541,7.786488633,21.20112142,-0.355791009,0.176372379,-0.871301062,-0.288340081,0.365416667,1.17875,10.2585633,0.012708179,0.036597373,-0.0389972,42.415333,-71.139445,5.4
15.0806059,1524522.618,-4462795.13,4279780.225,-17.10575767,8.648819245,20.32282526,-0.355431331,0.177674036,-0.870940003,-0.289074415,0.215416667,1.20875,10.5485633,-0.005835945,0.001690788,-0.042269693,nan,nan,nan
15.454205,1524516.241,-4462791.905,4279787.802,-20.5998403,12.93149996,15.8504183,-0.353593422,0.186920226,-0.86854499,-0.292680923,-0.354583333,0.90875,9.9485633,-0.001145372,0.006926775,-0.055250579,nan,nan,nan
15.7434211,1524514.604,-4462790.878,4279789.061,-21.34501938,13.83944307,14.94894316,-0.35296336,0.189097813,-0.868474407,-0.292251755,-0.034583333,1.26875,9.5585633,0.031252302,0.00496328,-0.048814678,nan,nan,nan
15.8153539,1524512.975,-4462789.822,4279790.202,-22.1366399,14.6731022,14.06369901,-0.35430937,0.190807036,-0.867271898,-0.293081902,0.775416667,0.86875,10.2285633,-0.018925914,0.050778173,-0.042269693,nan,nan,nan
15.8916323,1524511.376,-4462788.762,4279791.218,-22.86494067,15.50097749,13.22269191,-0.354712511,0.192600919,-0.866567106,-0.293505319,0.225416667,1.19875,10.2485633,-0.000381791,0.028961557,-0.047723847,nan,nan,nan
15.9638615,1524509.588,-4462787.55,4279792.252,-23.72205144,16.37677831,12.38572758,-0.354595789,0.195129096,-0.866282718,-0.292815156,1.405416667,1.71875,10.2485633,0.036706456,0.022416573,-0.05208717,nan,nan,nan
16.0423476,1524513.364,-4462795.068,4279784.07,-14.5034669,-2.712080768,-22.90526395,-0.198563081,-0.812842693,0.516913647,0.180720063,0.270416667,1.25675,9.9825633,-0.052741668,-0.059395736,-0.053178001,42.415391,-71.139563,5.1
16.1140066,1524512.235,-4462795.28,4279782.287,-14.82291074,-1.863099216,-24.07777169,-0.19950184,-0.813794544,0.515666779,0.17895594,0.395416667,1.18875,9.4485633,0.032343133,0.022416573,-0.05208717,nan,nan,nan
16.1872463,1524511.009,-4462795.434,4279780.296,-15.24241016,-0.856855246,-25.27720377,-0.201219581,-0.814641816,0.514236979,0.177284295,-1.264583333,1.52875,9.6985633,0.044342271,0.008235772,-0.054268831,nan,nan,nan
16.258606,1524505.303,-4462795.754,4279770.833,-17.02167326,3.847270229,-30.64512194,-0.202990096,-0.819244407,0.507789679,0.172578283,-1.534583333,1.08875,9.7285633,0.009544769,0.013035428,-0.047505681,nan,nan,nan
16.3354895,1524504.127,-4462795.488,4279768.715,-17.30373212,4.628459598,-31.73770607,-0.203665923,-0.820060721,0.506191528,0.17259995,0.365416667,1.22875,10.2785633,0.002890702,-0.015762505,-0.053178001,nan,nan,nan
16.4077439,1524501.08,-4462794.674,4279763.127,-17.84548536,6.562202558,-34.66548912,-0.207328938,-0.821774286,0.502125,0.171965752,1.445416667,0.58875,10.7485633,0.025798148,-0.021216659,-0.056450493,nan,nan,nan
16.4865725,1524499.822,-4462794.211,4279760.683,-18.10009508,7.357700846,-35.75826406,-0.20646784,-0.82295746,0.50085779,0.171036622,0.465416667,0.81875,9.9685633,-0.020016745,0.03223405,-0.047723847,nan,nan,nan
16.5577756,1524498.506,-4462793.676,4279758.083,-18.34476266,8.120875483,-36.88431679,-0.207395125,-0.823605362,0.50025271,0.168548799,1.135416667,0.90875,9.5385633,0.048705594,0.043142357,-0.041178862,nan,nan,nan
16.6365126,1524497.184,-4462793.091,4279755.426,-18.59546666,8.91637662,-38.02749525,-0.206729734,-0.824906738,0.498058103,0.169498726,0.825416667,0.88875,10.1485633,-0.046196684,-0.019034997,-0.059722985,nan,nan,nan
16.7183827,1524488.994,-4462793.323,4279791.919,-30.91443918,-2.946057964,-16.55707845,-0.178083731,-0.792071759,0.557530478,0.173402077,-0.504583333,0.64875,9.9685633,-0.012380929,0.013689926,-0.048814678,42.415525,-71.139833,4.7
16.7946811,1524486.268,-4462793.583,4279790.459,-31.29323423,-1.906920158,-17.91855986,-0.177772994,-0.793394312,0.555724905,0.173470626,-0.494583333,1.07875,10.2285633,-0.018925914,0.000599957,-0.047723847,nan,nan,nan
16.8665229,1524480.672,-4462793.924,4279787.255,-32.15565583,0.099404067,-20.78240316,-0.180257708,-0.795884766,0.552921399,0.16838208,0.065416667,1.78875,10.5085633,0.043251441,0.028961557,-0.055359662,nan,nan,nan
16.939195,1524468.674,-4462793.886,4279779.5,-33.65183332,4.29377135,-26.6024569,-0.182251923,-0.800842021,0.544298418,0.170808452,0.050416667,1.05675,10.0815633,-0.011290099,-0.020125828,-0.050996339,nan,nan,nan
17.0113191,1524466.039,-4462793.55,4279777.417,-33.94299061,5.130409505,-27.80506584,-0.18324019,-0.801929004,0.542442097,0.170556374,0.545416667,0.90875,9.5885633,0.010526517,-0.012490012,-0.058632155,nan,nan,nan
17.0946573,1524463.589,-4462793.18,4279775.41,-34.23755314,6.00036111,-28.92850627,-0.183595857,-0.803033194,0.54048067,0.171204251,-0.584583333,0.80875,10.4485633,-0.016744253,-0.024489151,-0.058632155,nan,nan,nan
17.1660195,1524460.912,-4462792.711,4279773.148,-34.61461219,6.905127568,-30.07176984,-0.182901259,-0.804473324,0.538903539,0.170155155,-0.894583333,1.54875,9.4585633,-0.01347176,0.030052388,-0.054268831,nan,nan,nan
17.2384766,1524458.4,-4462792.21,4279770.966,-34.98685355,7.745284326,-31.17949203,-0.184349079,-0.805565329,0.537603428,0.167518573,-0.734583333,1.88875,10.0385633,0.059613902,0.035506542,-0.065177139,nan,nan,nan
17.3105935,1524477.003,-4462790.162,4279795.867,-4.777810736,25.00351312,-13.68296869,0.076757752,0.973338157,-0.148841473,-0.156739578,-0.594583333,2.20875,9.7585633,0.009435686,0.043142357,-0.065177139,42.4156,-71.139969,4.5
17.3887378,1524475.158,-4462780.506,4279790.584,-6.809727987,27.92830021,-19.93380684,0.078317543,0.975123418,-0.13836123,-0.154456636,0.295416667,1.21875,9.9585633,0.000381791,0.007581274,-0.056450493,nan,nan,nan
17.7739488,1524474.658,-4462778.456,4279789.12,-7.183901809,28.42356183,-21.13849147,0.081300485,0.975316349,-0.136321868,-0.15350765,0.665416667,1.98875,9.9585633,0.073794702,0.010417434,-0.069540462,nan,nan,nan
17.8489592,1524474.144,-4462776.424,4279787.609,-7.563514715,28.94629819,-22.28050193,0.082042252,0.975584639,-0.13423194,-0.153249689,0.175416667,1.51875,9.7185633,0.011617348,0.000599957,-0.061904647,nan,nan,nan
17.9205752,1524473.615,-4462774.398,4279786.049,-7.856562203,29.45928641,-23.44457112,0.08221888,0.975997049,-0.132176593,-0.152312722,1.405416667,1.26875,10.0185633,-0.001472622,0.022416573,-0.061904647,nan,nan,nan
17.9938089,1524473.061,-4462772.322,4279784.397,-8.250426393,30.00817977,-24.58488374,0.083196275,0.976171243,-0.130236204,-0.152337177,-0.154583333,1.17875,10.0785633,0.018162333,-0.008126689,-0.058632155,nan,nan,nan
18.0655406,1524472.462,-4462770.143,4279782.613,-8.648555617,30.55439308,-25.75105252,0.083420137,0.976356628,-0.128161451,-0.152785663,-0.034583333,1.39875,9.8885633,-0.004745114,-0.016853336,-0.056450493,nan,nan,nan
18.1474187,1524471.841,-4462767.949,4279780.763,-8.984537833,31.08206148,-26.93212751,0.084736251,0.9765417,-0.126352609,-0.152384691,0.875416667,1.38875,9.9885633,0.02907064,0.002781618,-0.056450493,nan,nan,nan
18.5175046,1524471.204,-4462765.746,4279778.854,-9.321075529,31.61860287,-28.04016759,0.084727523,0.976866597,-0.124514284,-0.151819276,0.495416667,1.11875,9.2785633,-0.006926775,0.012599096,-0.053178001,nan,nan,nan
18.593863,1524470.512,-4462763.398,4279776.772,-9.768651371,32.1864641,-29.20354019,0.08303019,0.977247547,-0.122876734,-0.151639471,-0.704583333,1.38875,9.6885633,-0.051650838,0.008235772,-0.03790637,nan,nan,nan
18.6656842,1524464.65,-4462788.499,4279801.455,-25.81447859,-21.61751159,-15.87642291,0.142976967,0.977797108,-0.032914244,-0.149623045,0.605416667,0.59875,9.6785633,-0.003654283,-0.001581705,-0.033543047,42.415673,-71.140096,4.4
18.7538943,1524462.724,-4462790.112,4279800.27,-26.23234365,-20.97049592,-16.99225567,0.142779812,0.978033878,-0.031391864,-0.148587382,-0.624583333,0.85875,9.0785633,-0.011290099,0.022416573,-0.043360524,nan,nan,nan
18.8261482,1524460.773,-4462791.672,4279799.006,-26.65831063,-20.40709881,-18.18589644,0.144907331,0.978092611,-0.030528001,-0.146303626,-0.414583333,2.20875,9.7885633,0.054159748,0.055141496,-0.040088031,nan,nan,nan
18.902159,1524458.86,-4462793.137,4279797.701,-27.03148407,-19.83987229,-19.36421089,0.144074002,0.978486908,-0.029383036,-0.144715899,0.145416667,1.97875,10.0785633,-0.02765256,0.040960696,-0.034633877,nan,nan,nan
18.9742268,1524456.869,-4462794.598,4279796.275,-27.497866,-19.1658137,-20.55770279,0.1452765,0.978630616,-0.028393276,-0.142725886,-1.054583333,0.81875,10.5585633,0.02907064,0.048596511,-0.0389972,nan,nan,nan
19.0477578,1524454.921,-4462795.955,4279794.819,-27.9126032,-18.57540235,-21.68372831,0.14688017,0.978598971,-0.027319423,-0.141505901,-0.714583333,1.48875,9.8985633,0.041069779,0.027870726,-0.041178862,nan,nan,nan
19.1186488,1524452.765,-4462797.39,4279793.144,-28.43211855,-17.87253856,-22.87023574,0.145892621,0.978977317,-0.025849414,-0.140180472,-1.734583333,0.71875,9.8585633,-0.030925053,0.030052388,-0.0389972,nan,nan,nan
19.2012875,1524450.728,-4462798.671,4279791.505,-28.7490604,-17.3180365,-24.0505079,0.147822932,0.978735791,-0.02455046,-0.14007822,0.775416667,2.08875,9.8685633,0.048705594,-0.004854197,-0.043360524,nan,nan,nan
19.273533,1524439.961,-4462805.156,4279782.498,-30.76402685,-14.14043256,-29.99124753,0.149798291,0.977645017,-0.014670555,-0.146817805,-0.322583333,1.32675,9.7775633,0.002890702,-0.044124105,-0.047723847,nan,nan,nan
19.3457627,1524437.831,-4462806.135,4279780.422,-31.07621715,-13.51825126,-31.13933489,0.149860272,0.977528664,-0.012855901,-0.147696772,0.865416667,0.99875,10.3385633,-0.005835945,-0.033215797,-0.047723847,nan,nan,nan
19.4177432,1524452.2,-4462786.243,4279808.792,-4.930251681,32.68017661,-14.81216072,-0.204430049,0.053516759,0.971718747,-0.105389702,0.785416667,0.46875,10.0485633,0.009653852,0.014126259,-0.040960696,42.41577,-71.140221,4.3
19.4960499,1524451.82,-4462783.725,4279807.65,-4.871273699,33.15326969,-16.04847916,-0.203514024,0.051465587,0.972145141,-0.104245678,0.985416667,1.48875,9.7885633,-0.039651699,0.021325742,-0.048814678,nan,nan,nan
19.8794548,1524451.44,-4462781.143,4279806.4,-4.804857196,33.63170426,-17.3437479,-0.203297183,0.049586838,0.97219623,-0.105099436,1.125416667,1.58875,10.3585633,0.011617348,-0.000490874,-0.05208717,nan,nan,nan
19.9558047,1524451.099,-4462778.755,4279805.169,-4.713590758,34.00290978,-18.47419513,-0.202006099,0.048251462,0.9723569,-0.106711725,0.385416667,0.63875,10.0885633,0.037797287,0.030052388,-0.049905508,nan,nan,nan
20.027385,1524447.944,-4462755.995,4279792.803,-3.676205294,37.85958826,-29.14518913,-0.196506737,0.034708256,0.973501023,-0.111696901,0.156416667,1.22775,10.0885633,0.006708609,0.011617348,-0.044342271,nan,nan,nan
20.100176,1524447.646,-4462752.928,4279790.442,-3.594259539,38.30973612,-30.47242682,-0.196037716,0.032624956,0.973734254,-0.111114487,0.705416667,1.10875,10.3285633,-0.024380068,0.007144942,-0.048814678,nan,nan,nan
20.1724766,1524440.996,-4462781.21,4279820.728,62.90369931,-24.2691891,26.45777932,0.327337067,0.315572398,0.865524998,0.21007376,-0.124583333,0.44875,10.2285633,0.007035859,0.008235772,-0.045760351,42.41587,-71.14035,4.2
20.2551012,1524445.861,-4462783.087,4279822.774,62.42329086,-23.28443917,25.44173848,0.326783428,0.313869127,0.866279477,0.210377352,0.115416667,0.52875,9.5885633,0.007254025,-0.007035859,-0.049905508,nan,nan,nan
20.3274112,1524450.372,-4462784.769,4279824.613,61.96184497,-22.34517344,24.50755875,0.325187035,0.312093842,0.867510007,0.210421517,0.475416667,0.63875,9.6685633,0.008344855,-0.038669951,-0.062995478,nan,nan,nan
20.3997809,1524454.953,-4462786.421,4279826.424,61.47456467,-21.32607583,23.57791735,0.326574428,0.309675407,0.86815845,0.209167857,1.185416667,1.12875,9.9585633,0.066158887,0.030052388,-0.043360524,nan,nan,nan
20.4712353,1524461.143,-4462788.568,4279828.798,60.87281039,-20.0565844,22.23134363,0.324124511,0.307042507,0.870306605,0.207929347,-0.234583333,0.61875,9.5785633,0.032343133,-0.052850751,-0.060813816,nan,nan,nan
20.5501823,1524465.516,-4462790.009,4279830.396,60.49545797,-19.06864712,21.29559353,0.323346175,0.305010441,0.871326022,0.207862566,0.075416667,2.01875,9.6585633,0.019253163,-0.016853336,-0.061904647,nan,nan,nan
20.6220438,1524469.926,-4462791.4,4279831.948,59.98391539,-18.10645354,20.33016773,0.32155988,0.303822141,0.872247219,0.20850933,0.775416667,0.41875,10.2685633,-0.014562591,-0.038669951,-0.05208717,nan,nan,nan
20.7107217,1524474.223,-4462792.697,4279833.405,59.5722069,-17.14781542,19.3650981,0.322020302,0.301476306,0.8730859,0.20769202,-0.054583333,1.34875,9.9785633,0.049796425,0.010417434,-0.054268831,nan,nan,nan
20.7822733,1524478.831,-4462794.023,4279834.902,59.20726131,-16.16538705,18.24192185,0.325235128,0.298467107,0.87343077,0.205567963,-1.684583333,1.38875,9.8885633,0.099974641,0.069322296,-0.035724708,nan,nan,nan
20.8583289,1524483.075,-4462795.182,4279836.21,58.85328635,-15.21426257,17.30713538,0.326097701,0.296073353,0.87424698,0.204188827,-0.364583333,1.97875,9.2385633,0.067249718,0.015871588,-0.047723847,nan,nan,nan
21.131971,1524487.69,-4462796.375,4279837.567,58.31121295,-14.19822996,16.24806049,0.324094215,0.2953283,0.874852538,0.205857167,0.385416667,0.42875,10.2685633,-0.042924191,-0.033215797,-0.045542185,nan,nan,nan
21.2040261,1524491.881,-4462797.395,4279838.735,57.88734789,-13.23056376,15.26331952,0.325910914,0.293581391,0.874514484,0.206921388,-0.154583333,1.39875,10.2385633,0.002890702,0.066049804,-0.0389972,nan,nan,nan
21.2814889,1524496.42,-4462798.433,4279839.932,57.47020994,-12.13888982,14.17243682,0.32529867,0.29199965,0.875184991,0.20728775,-0.534583333,2.07875,10.3785633,0.003981532,-0.008126689,-0.046633016,nan,nan,nan
21.3528193,1524500.557,-4462799.306,4279840.952,57.09020372,-11.26177785,13.16468721,0.323385578,0.291677698,0.875106876,0.211030434,-1.274583333,0.79875,9.4585633,-0.104010715,-0.013580843,-0.05208717,nan,nan,nan
21.4243718,1524430.382,-4462779.903,4279831.652,-34.4217912,19.24190763,30.52493804,-0.899572488,-0.418432043,-0.052664511,-0.113624001,1.745416667,0.27875,9.6585633,0.036706456,0.031143219,-0.041178862,42.415968,-71.140475,4.1
21.6023637,1524427.827,-4462778.475,4279833.917,-34.57058123,20.34424072,30.48668499,-0.89895961,-0.419205118,-0.052588143,-0.115642449,0.195416667,0.55875,10.0485633,-0.028743391,0.021325742,-0.048814678,nan,nan,nan
21.7063017,1524425.164,-4462776.908,4279836.266,-34.8114949,21.53101014,30.40405539,-0.898583689,-0.419505093,-0.053216007,-0.117178873,-1.104583333,1.00875,10.1085633,-0.011290099,0.000599957,-0.043360524,nan,nan,nan
21.7776807,1524421.418,-4462774.591,4279839.538,-34.87199073,23.10769763,30.29363357,-0.898233566,-0.419458347,-0.051114071,-0.120907024,1.505416667,1.14875,9.5685633,-0.010199268,0.063868142,-0.046633016,nan,nan,nan
21.8544724,1524418.907,-4462772.927,4279841.719,-34.95563539,24.13755369,30.23101002,-0.897788046,-0.419885462,-0.050706372,-0.122888924,0.945416667,0.65875,9.4085633,-0.020016745,0.031143219,-0.045542185,nan,nan,nan
21.9260548,1524416.346,-4462771.159,4279843.934,-35.06656123,25.14789654,30.14158205,-0.896607345,-0.421827941,-0.05214049,-0.124249051,0.605416667,0.49875,8.7885633,-0.058195822,-0.027761643,-0.050996339,nan,nan,nan
22.3058688,1524413.839,-4462769.361,4279846.089,-35.12122411,26.19031073,30.04459444,-0.896518585,-0.421427059,-0.054281743,-0.125328183,1.175416667,1.24875,9.3185633,0.01488984,-0.039760782,-0.053178001,nan,nan,nan
22.3777909,1524407.615,-4462764.72,4279851.413,-35.30047015,28.83726018,29.86562565,-0.897512104,-0.417718169,-0.05611831,-0.129747024,0.965416667,1.15875,9.8085633,0.04216061,0.008235772,-0.054268831,nan,nan,nan
22.4577235,1524405.08,-4462762.649,4279853.558,-35.36941719,29.93199125,29.83570092,-0.897690308,-0.416733113,-0.057368371,-0.131127777,1.055416667,1.00875,10.4185633,0.02907064,-0.011399182,-0.049905508,nan,nan,nan
22.8398607,1524398.759,-4462757.299,4279858.89,-35.70633129,32.5216834,29.60205621,-0.898029748,-0.414664,-0.056478602,-0.135670582,0.125416667,0.95875,9.2585633,0.018162333,0.03332488,-0.042269693,nan,nan,nan
23.2139628,1524396.175,-4462754.946,4279861.033,-35.78544149,33.57776252,29.52267085,-0.897251428,-0.415805633,-0.056761057,-0.137199613,0.845416667,1.12875,9.4785633,-0.038560868,0.00496328,-0.042269693,nan,nan,nan
23.283098,1524415.287,-4462773.296,4279841.302,-12.26067438,19.22525206,9.881221049,-0.012175597,-0.077544148,0.822833284,0.56283572,0.685416667,0.72875,9.1585633,-0.015653422,-0.047396597,-0.050996339,42.416083,-71.140606,4.2
23.3640018,1524414.339,-4462771.809,4279842.066,-12.55269724,20.42597119,9.138185604,-0.014638858,-0.078438633,0.82259019,0.563008406,0.755416667,0.50875,9.2485633,-0.002563452,-0.039760782,-0.055359662,nan,nan,nan
23.4339845,1524413.423,-4462770.32,4279842.733,-12.76006177,21.62712907,8.442953701,-0.016053145,-0.079662498,0.821664381,0.564148765,-0.254583333,0.77875,10.0285633,-0.037470037,-0.015762505,-0.050996339,nan,nan,nan
23.5104665,1524412.381,-4462768.553,4279843.422,-12.92383804,22.94282499,7.701469098,-0.015891815,-0.082140686,0.822507303,0.562567414,-1.084583333,0.91875,9.4785633,0.04216061,0.040960696,-0.046633016,nan,nan,nan
23.5820802,1524407.539,-4462759.958,4279846.308,-14.69902174,28.94916225,3.886507581,-0.022579168,-0.08878844,0.821615799,0.562631562,1.715416667,0.31875,9.9885633,-0.000599957,-0.009435686,-0.049687342,nan,nan,nan
23.6609754,1524406.526,-4462757.963,4279846.575,-14.82504248,30.08515874,3.247649989,-0.023246398,-0.089891131,0.822623253,0.560954698,-1.294583333,0.84875,9.8885633,0.057432241,0.007144942,-0.035724708,nan,nan,nan
23.742492,1524405.391,-4462755.66,4279846.824,-15.0774594,31.33665796,2.555993375,-0.024253724,-0.090959555,0.824104952,0.558559885,0.125416667,1.30875,9.7585633,0.074885533,0.000599957,-0.035724708,nan,nan,nan
23.8145863,1524404.303,-4462753.398,4279847.008,-15.42529647,32.4979859,1.905219168,-0.023983012,-0.092553385,0.825500365,0.556244401,1.645416667,1.55875,9.5985633,0.072703872,0.037688204,-0.030270554,nan,nan,nan
23.8845401,1524403.099,-4462750.862,4279847.157,-15.72547723,33.78624791,1.198065822,-0.026193764,-0.092966139,0.826450244,0.554663121,0.615416667,1.54875,9.9385633,0.051978087,-0.03648829,-0.0389972,nan,nan,nan
23.9606476,1524389.458,-4462762.977,4279860.828,-39.92951787,16.71656812,-3.039179683,0.303483727,-0.895969733,0.155379201,-0.284592991,0.375416667,0.96475,9.6565633,0.038888117,0.038779034,-0.033543047,42.416341,-71.140876,4.2
24.0313158,1524385.946,-4462761.507,4279860.56,-39.78965473,16.74174282,-4.157944418,0.301441724,-0.897454219,0.153140745,-0.283296179,0.105416667,0.48875,9.7785633,0.061795564,-0.027761643,-0.046633016,nan,nan,nan
24.1096012,1524383.052,-4462760.289,4279860.258,-39.71392089,16.72698828,-5.079216664,0.300702601,-0.89796577,0.151271226,-0.283465056,-0.224583333,1.18875,9.8185633,0.037797287,0.012599096,-0.041178862,nan,nan,nan
24.1817246,1524380.025,-4462759.014,4279859.871,-39.65382495,16.66643933,-6.008710899,0.300071497,-0.898108534,0.148849861,-0.284959429,-0.094583333,1.99875,9.7685633,0.039978948,0.050778173,-0.041178862,nan,nan,nan
24.2542801,1524377.178,-4462757.818,4279859.439,-39.47228391,16.62860625,-6.855598508,0.300112283,-0.89865378,0.147329071,-0.283986175,1.455416667,1.23875,10.0685633,0.011617348,-0.015762505,-0.048814678,nan,nan,nan
24.3259497,1524374.287,-4462756.6,4279858.937,-39.30743298,16.64854238,-7.728184547,0.300968179,-0.899121098,0.146311743,-0.28212104,1.095416667,0.69875,9.5285633,-0.016744253,-0.03757912,-0.048814678,nan,nan,nan
24.4026161,1524371.474,-4462755.408,4279858.384,-39.27397422,16.66365356,-8.619848958,0.300543579,-0.89959484,0.144222302,-0.282139345,-0.624583333,1.25875,9.1785633,0.031252302,0.012599096,-0.050996339,nan,nan,nan
24.4753304,1524364.565,-4462752.477,4279856.868,-39.19471917,16.6964216,-10.9174521,0.29801196,-0.901590678,0.138764073,-0.28118971,-1.004583333,1.02875,9.5785633,0.048705594,-0.001581705,-0.054268831,nan,nan,nan
24.5474812,1524361.796,-4462751.297,4279856.096,-39.16844273,16.70846656,-11.87985591,0.297559028,-0.901615783,0.136623329,-0.282633459,-1.404583333,0.88875,9.9185633,0.034524794,0.052959834,-0.0389972,nan,nan,nan
24.617572,1524358.711,-4462749.981,4279855.161,-39.02058328,16.68013557,-12.92750657,0.299615986,-0.901732094,0.135256182,-0.280740553,-0.004583333,0.84875,10.6685633,-0.042924191,-0.026670813,-0.060813816,nan,nan,nan
24.7004333,1524355.919,-4462748.788,4279854.236,-38.92101376,16.66756095,-13.86370749,0.298513757,-0.90234073,0.132863104,-0.281101655,-0.264583333,0.96875,10.2085633,0.053068918,0.020234911,-0.050996339,nan,nan,nan
24.7740253,1524352.66,-4462747.392,4279853.075,-38.81169924,16.58503999,-14.84369873,0.296879973,-0.903120078,0.129604991,-0.281849168,0.515416667,2.31875,9.7485633,0.065068056,0.028961557,-0.056450493,nan,nan,nan
24.9465726,1524349.895,-4462746.211,4279852.017,-38.71340115,16.60568787,-15.70202947,0.297726084,-0.903190099,0.12784284,-0.281536913,0.255416667,1.17875,9.2185633,-0.008017606,0.009326603,-0.054268831,nan,nan,nan
25.0195887,1524373.396,-4462756.093,4279872.223,-8.140056038,-1.094728593,19.09432484,0.254889993,0.852271754,-0.425928874,-0.165071329,-0.714583333,0.79875,8.9685633,0.018162333,0.000599957,-0.057541324,42.416481,-71.141015,4.2
25.0890944,1524372.762,-4462756.179,4279873.711,-8.488218936,-0.314104951,17.96341792,0.254222949,0.853572184,-0.424170152,-0.163905162,0.665416667,2.43875,8.3985633,-0.017835083,0.026779896,-0.057541324,nan,nan,nan
25.1654028,1524372.149,-4462756.201,4279875.008,-8.773869178,0.422180027,16.91491575,0.253533569,0.854864499,-0.42216597,-0.163411479,0.825416667,1.92875,8.4885633,-0.028743391,0.011508265,-0.062995478,nan,nan,nan
25.3385701,1524371.516,-4462756.171,4279876.229,-9.047603312,1.244085575,15.80842711,0.254593119,0.855569965,-0.420340106,-0.162777681,0.545416667,1.40875,9.8185633,0.019253163,-0.007035859,-0.060813816,nan,nan,nan
25.4216288,1524370.809,-4462756.074,4279877.463,-9.340592231,2.161116311,14.56944279,0.253572539,0.857094839,-0.417974914,-0.162438836,0.605416667,1.36875,10.4585633,-0.038560868,0.009326603,-0.06626797,nan,nan,nan
25.4907425,1524370.154,-4462755.922,4279878.486,-9.650870071,3.015533729,13.56649422,0.253784632,0.858117566,-0.415809601,-0.162265153,-0.854583333,1.17875,9.4585633,-0.010199268,-0.00921752,-0.067358801,nan,nan,nan
25.6677447,1524369.397,-4462755.686,4279879.549,-9.940988864,3.903953574,12.37802172,0.253128051,0.859432527,-0.413329289,-0.162667827,0.535416667,1.29875,9.6485633,-0.037470037,-0.012490012,-0.062995478,nan,nan,nan
25.7493975,1524368.679,-4462755.404,4279880.443,-10.27162344,4.690587088,11.30074075,0.253655311,0.860346336,-0.41159499,-0.161408583,0.165416667,2.12875,9.2585633,0.012708179,0.015871588,-0.062995478,nan,nan,nan
26.0271584,1524367.877,-4462755.037,4279881.325,-10.59254356,5.635513435,10.14516355,0.254449801,0.861221712,-0.410028449,-0.159465149,-0.384583333,1.08875,9.8185633,0.025798148,0.027870726,-0.059722985,nan,nan,nan
26.0983413,1524367.113,-4462754.631,4279882.057,-10.8774025,6.49059776,9.078538848,0.255406814,0.862168066,-0.408160702,-0.157602118,-0.164583333,1.10875,9.6585633,0.02907064,0.024598234,-0.072812955,nan,nan,nan
26.1683444,1524366.257,-4462754.12,4279882.772,-11.17068287,7.332199225,7.817924391,0.254630353,0.863484216,-0.40654786,-0.155811522,1.265416667,1.95875,9.9785633,-0.01347176,0.042051527,-0.057541324,nan,nan,nan
26.2387301,1524365.289,-4462753.484,4279883.449,-11.48370354,8.260790907,6.547320483,0.255660297,0.864092369,-0.404469916,-0.156161063,0.635416667,1.42875,8.8785633,0.006163194,-0.026670813,-0.048814678,nan,nan,nan
26.3175489,1524364.438,-4462752.872,4279883.935,-11.77502481,9.106516627,5.490925151,0.255128651,0.865120842,-0.401916537,-0.15791896,-0.174583333,1.17875,8.9585633,-0.049469176,-0.048487428,-0.056450493,nan,nan,nan
26.3895641,1524363.593,-4462752.219,4279884.329,-11.96568839,9.933889947,4.379930818,0.255909168,0.865887826,-0.400297157,-0.156559758,1.165416667,0.47875,9.9585633,0.021434825,0.015871588,-0.060813816,nan,nan,nan
26.6739384,1524361.692,-4462751.187,4279884.194,-13.66838493,11.29253663,3.076043458,0.263414178,0.867096218,-0.373570746,-0.197994994,0.285416667,1.53875,10.6885633,0.060704733,0.034415711,-0.061904647,42.416618,-71.141145,4.2
26.7547583,1524356.477,-4462746.879,4279885.367,-15.422369,15.77986385,-2.532054489,0.264480106,0.872050368,-0.365116705,-0.190442175,0.247416667,1.33875,9.6305633,0.003981532,0.025689065,-0.059722985,nan,nan,nan
26.8253585,1524355.305,-4462745.68,4279885.175,-15.68942611,16.64934184,-3.7078585,0.265710173,0.872569543,-0.363719877,-0.189019439,1.415416667,0.99875,9.8985633,0.031252302,0.013689926,-0.053178001,nan,nan,nan
26.8956619,1524354.18,-4462744.486,4279884.909,-15.97160367,17.52403949,-4.747200858,0.268357698,0.87267297,-0.362399064,-0.187331129,0.205416667,0.56875,9.6385633,0.073794702,0.00496328,-0.059722985,nan,nan,nan
26.9712898,1524353.004,-4462743.195,4279884.56,-16.25522191,18.45259034,-5.844069418,0.268821193,0.873363943,-0.360776149,-0.186577489,0.245416667,0.44875,10.1885633,0.005072363,0.00496328,-0.053178001,nan,nan,nan
27.0422166,1524351.838,-4462741.872,4279884.14,-16.53776459,19.32079714,-6.856847211,0.26940757,0.874029404,-0.359956072,-0.184184118,0.045416667,0.55875,9.2885633,0.02907064,0.049687342,-0.047723847,nan,nan,nan
27.4185427,1524350.575,-4462740.396,4279883.617,-16.78744563,20.28609553,-8.038425602,0.265181711,0.876194696,-0.3581888,-0.183472883,0.875416667,0.22875,10.5785633,-0.113828192,0.054050665,-0.045542185,nan,nan,nan
27.4879421,1524349.204,-4462738.74,4279882.96,-17.18646932,21.33967676,-9.197626407,0.265594642,0.877253363,-0.358023869,-0.178058792,-1.054583333,0.72875,9.9485633,0.048705594,0.11622802,-0.049905508,nan,nan,nan
27.5580381,1524347.89,-4462737.108,4279882.257,-17.57482586,22.33890461,-10.30239653,0.266118806,0.878106543,-0.357278647,-0.17453266,-1.244583333,0.88875,10.2585633,0.035615625,0.07477645,-0.05208717,nan,nan,nan
27.632121,1524346.623,-4462735.498,4279881.515,-17.73899092,23.22146735,-11.47389159,0.264600585,0.879504017,-0.355671736,-0.173080416,1.945416667,0.00875,10.8785633,-0.04074253,0.045324019,-0.056450493,nan,nan,nan
28.0161928,1524347.846,-4462743.333,4279893.745,-17.24643312,18.94629427,-4.402430078,0.354644052,0.886752916,-0.210242999,-0.20903288,0.115416667,0.44875,10.1085633,-0.060377484,0.079139773,-0.048814678,42.41676,-71.141273,4.2
28.0882002,1524346.52,-4462741.875,4279893.407,-17.6131543,19.99355098,-5.44791006,0.353276874,0.88795152,-0.208423488,-0.20807979,0.105416667,0.57875,9.9985633,-0.047287514,0.01914408,-0.049905508,nan,nan,nan
28.1603942,1524345.226,-4462740.407,4279893.007,-18.00917792,20.92598632,-6.367743615,0.351507095,0.88925782,-0.206978982,-0.206937174,-0.774583333,0.89875,8.7785633,-0.057104991,0.031143219,-0.043360524,nan,nan,nan
28.234567,1524343.95,-4462738.924,4279892.555,-18.32174614,21.82351112,-7.283266425,0.351068498,0.889768144,-0.204321791,-0.20812536,0.225416667,0.58875,8.7985633,-0.038560868,-0.05066909,-0.055359662,nan,nan,nan
28.3069892,1524342.535,-4462737.239,4279891.993,-18.6310711,22.86222744,-8.371871513,0.352498707,0.889993781,-0.203379194,-0.205651733,1.025416667,0.46875,10.0585633,0.038888117,0.042051527,-0.053178001,nan,nan,nan
28.3794572,1524341.189,-4462735.587,4279891.388,-18.92634057,23.83335342,-9.427312215,0.354747092,0.889603381,-0.201745505,-0.205083098,1.185416667,0.82875,10.4085633,0.053068918,-0.016853336,-0.056450493,nan,nan,nan
28.450795,1524339.697,-4462733.708,4279890.645,-19.3629962,24.91897849,-10.55924421,0.355556172,0.889989523,-0.201066629,-0.202658997,-0.214583333,1.24875,10.7885633,0.023616486,0.04641485,-0.043360524,nan,nan,nan
28.5267933,1524338.317,-4462731.932,4279889.892,-19.66689923,25.87068609,-11.57373166,0.355169031,0.890622782,-0.199465045,-0.202137864,0.835416667,0.83875,10.1385633,-0.022198406,0.002781618,-0.046633016,nan,nan,nan
28.5975469,1524334.813,-4462727.323,4279887.83,-20.52112631,28.24574712,-13.92699841,0.355814983,0.89137734,-0.197591836,-0.199498377,-0.124583333,0.53875,9.5485633,0.005072363,0.01914408,-0.032452216,nan,nan,nan
28.8868062,1524333.155,-4462725.041,4279886.705,-20.96615633,29.34565474,-14.96919394,0.356289962,0.891671277,-0.19622359,-0.198685932,-0.974583333,0.53875,9.6985633,0.005072363,0.00496328,-0.041178862,nan,nan,nan
28.9586799,1524331.64,-4462722.92,4279885.623,-21.30737464,30.33753389,-15.94163527,0.356285214,0.892084427,-0.195351131,-0.197697134,-0.064583333,0.38875,9.9785633,-0.003654283,0.018053249,-0.033543047,nan,nan,nan
29.0370192,1524330.1,-4462720.728,4279884.471,-21.64712013,31.32075057,-16.94668703,0.352340468,0.894131696,-0.193703892,-0.197138295,0.185416667,0.70875,10.1985633,-0.123645669,0.030052388,-0.035724708,nan,nan,nan
29.1095055,1524333.622,-4462733.735,4279904.571,-21.3156593,28.43169569,-1.418941254,0.501787111,0.307607536,-0.553272538,-0.589471626,-0.234583333,2.01875,8.9085633,-0.061468315,-0.041942444,-0.035724708,42.416915,-71.1414,4.1
29.1825601,1524331.965,-4462731.525,4279904.461,-21.48172838,29.77050326,-1.794235979,0.503756387,0.306828493,-0.553905003,-0.587601078,0.905416667,1.62875,10.3585633,0.061795564,-0.016853336,-0.03790637,nan,nan,nan
29.2538108,1524330.409,-4462729.368,4279904.331,-21.5496758,30.86734558,-2.142577408,0.505223232,0.306482776,-0.554146138,-0.586293316,0.005416667,0.31875,8.5885633,0.041069779,-0.013580843,-0.034633877,nan,nan,nan
29.3315584,1524328.868,-4462727.16,4279904.178,-21.61655415,32.04884779,-2.525479431,0.505895975,0.3075121,-0.55266457,-0.586572626,0.865416667,0.32875,9.8085633,-0.037470037,-0.016853336,-0.035724708,nan,nan,nan
29.4041633,1524325.01,-4462721.44,4279903.727,-21.74068622,34.91974675,-3.041151176,0.506706615,0.309881707,-0.552260186,-0.585004634,-1.574583333,0.85875,9.9285633,-0.003654283,0.013689926,-0.030270554,nan,nan,nan
29.4800588,1524316.884,-4462708.389,4279902.59,-22.1809666,41.00345568,-4.6864458,0.512261003,0.312602489,-0.550775741,-0.58009864,-0.017583333,0.81675,9.7155633,0.011617348,-0.003763366,-0.041178862,nan,nan,nan
29.5508175,1524314.963,-4462704.837,4279902.184,-22.24881814,42.44475005,-5.09706068,0.514131253,0.312026505,-0.55156283,-0.57800256,0.275416667,0.42875,10.0685633,0.057432241,-0.007035859,-0.036815539,nan,nan,nan
29.9374516,1524313.377,-4462701.811,4279901.821,-22.31697039,43.63304231,-5.544741816,0.514209381,0.31414753,-0.549901453,-0.578367041,1.765416667,0.15875,9.7585633,-0.062559145,0.006054111,-0.043360524,nan,nan,nan
30.0066371,1524320.404,-4462725.388,4279920.614,-0.371016046,16.96183546,42.57848276,-0.539924754,0.054939073,0.46286924,0.700867338,0.705416667,2.16875,9.6485633,0.173060304,-0.027761643,-0.05208717,42.417075,-71.141515,4.1
30.1891116,1524320.375,-4462724.08,4279923.898,-0.150896095,17.94024785,42.4905688,-0.541193552,0.056907306,0.46568846,0.697857691,0.265416667,0.27875,9.5285633,0.113064611,-0.015762505,-0.045542185,nan,nan,nan
30.4627236,1524320.364,-4462722.775,4279926.989,0.064438139,18.8566135,42.39873162,-0.542999167,0.056056506,0.463295837,0.698116423,0.215416667,0.19875,9.4685633,-0.064740807,-0.041942444,-0.03790637,nan,nan,nan
30.5347208,1524320.369,-4462721.42,4279930.034,0.252120662,19.82234592,42.32549738,-0.54419726,0.056222005,0.46360361,0.696964936,0.965416667,0.58875,9.8985633,0.021434825,-0.015762505,-0.0389972,nan,nan,nan
30.6072622,1524320.413,-4462717.932,4279937.483,0.875050276,22.04441479,42.21450877,-0.546600967,0.054170663,0.464214602,0.694836474,-0.224583333,0.20875,10.1785633,0.001799871,0.006054111,-0.043360524,nan,nan,nan
30.6952724,1524320.475,-4462716.374,4279940.467,1.05782151,23.05924209,42.10387839,-0.548088882,0.053532032,0.463420362,0.69424381,1.945416667,0.27875,10.1085633,-0.020016745,-0.020125828,-0.045542185,nan,nan,nan
30.7675846,1524310.404,-4462717.439,4279936.152,4.906851645,20.73364849,12.71787612,0.416688645,0.339262954,0.158711226,0.828300651,0.520416667,0.54975,9.8395633,0.022743822,-0.0106356,-0.041506111,42.417228,-71.141626,4.1
30.8439246,1524310.831,-4462715.636,4279937.258,5.118476723,21.81437123,12.82098864,0.414972461,0.340243473,0.160369442,0.82844063,0.145416667,0.28875,10.7085633,0.008344855,-0.039760782,-0.043360524,nan,nan,nan
30.9156433,1524311.223,-4462713.963,4279938.241,5.291866936,22.69089002,12.94482819,0.414768395,0.33902309,0.161998177,0.8287262,1.135416667,0.75875,10.3885633,0.045433102,0.010417434,-0.026998062,nan,nan,nan
30.9886843,1524311.604,-4462712.329,4279939.174,5.47940712,23.56870251,12.96750778,0.415677646,0.335856143,0.165684011,0.82883144,-0.364583333,0.62875,10.0185633,0.129427072,0.035506542,-0.029179723,nan,nan,nan
31.060415,1524312.579,-4462708.138,4279941.479,5.798063138,25.67346768,13.12509399,0.412677451,0.336523993,0.162639712,0.83066073,0.555416667,0.27875,9.8885633,-0.046196684,0.009326603,-0.02372557,nan,nan,nan
31.1368641,1524312.987,-4462706.332,4279942.403,5.972930085,26.50530543,13.18245109,0.412278271,0.335217138,0.161711114,0.831568165,0.195416667,0.75875,10.1285633,-0.014562591,0.048596511,-0.017180585,nan,nan,nan
31.2143445,1524313.552,-4462703.822,4279943.651,6.149010499,27.63369738,13.23958225,0.411603574,0.334081446,0.162333268,0.832237944,0.235416667,0.19875,9.7585633,0.013799009,0.016962419,-0.025907231,nan,nan,nan
31.2881104,1524313.986,-4462701.873,4279944.585,6.27415485,28.45930666,13.29450017,0.409196993,0.336099311,0.158444467,0.833360921,0.495416667,0.26875,9.7385633,-0.143280623,-0.002672535,-0.02372557,nan,nan,nan
31.3595649,1524299.346,-4462709.174,4279949.209,-2.482685255,7.22789453,25.6778728,-0.217093767,-0.356956453,-0.718249816,0.556389782,0.425416667,0.36875,9.5985633,-0.000381791,0.004854197,-0.031797717,42.417386,-71.141733,4.0
31.438106,1524299.154,-4462708.616,4279951.192,-3.147927066,7.253302848,24.9606869,-0.21722985,-0.35719364,-0.718838938,0.555422791,-0.604583333,0.02875,9.4185633,-0.02656173,0.011508265,-0.008453939,nan,nan,nan
31.5098967,1524298.914,-4462708.062,4279953.098,-3.851232457,7.239999883,24.20535803,-0.219883747,-0.355756469,-0.71556152,0.559517813,-0.554583333,0.35875,10.3385633,0.157788673,0.009326603,-0.011726431,nan,nan,nan
31.5883392,1524298.638,-4462707.544,4279954.83,-4.589692177,7.355726234,23.52141899,-0.219802034,-0.355416873,-0.715933466,0.559289894,1.485416667,0.08875,9.8785633,-0.009108437,-0.007035859,-0.0106356,nan,nan,nan
31.6917349,1524298.301,-4462707.003,4279956.56,-5.368161372,7.40302013,22.79707639,-0.219081697,-0.352962499,-0.715746026,0.561362905,0.945416667,0.16875,10.7685633,0.050887256,-0.070304044,-0.022634739,nan,nan,nan
31.7624914,1524297.918,-4462706.476,4279958.184,-6.10561263,7.501754039,22.11664925,-0.219921017,-0.352926819,-0.715391075,0.561509588,1.385416667,0.07875,10.0385633,0.017071502,0.016962419,-0.009544769,nan,nan,nan
31.8395284,1524297.453,-4462705.904,4279959.87,-6.764270212,7.524325285,21.39766441,-0.219658416,-0.352857488,-0.715447535,0.561584009,-0.574583333,0.28875,9.4985633,-0.001472622,-0.007035859,0.002454369,nan,nan,nan
31.9117866,1524296.977,-4462705.375,4279961.375,-7.3328486,7.500110963,20.73481,-0.219552168,-0.354574364,-0.716255899,0.559509923,-1.414583333,0.34875,9.5185633,-0.066922469,0.040960696,0.015544339,nan,nan,nan
31.9899996,1524296.385,-4462704.769,4279963.049,-8.032406436,7.520126046,19.97749528,-0.218826753,-0.354180498,-0.716200409,0.560114275,-0.624583333,0.17875,9.5285633,0.007254025,-0.02339832,0.006817692,nan,nan,nan
32.0617976,1524295.807,-4462704.228,4279964.487,-8.632428665,7.534844624,19.31602709,-0.217573469,-0.353452147,-0.716609771,0.560538849,-0.864583333,0.08875,9.2785633,-0.005835945,-0.043033274,0.0035452,nan,nan,nan
32.1410191,1524293.403,-4462702.13,4279969.866,-11.51306185,7.668393108,16.71887492,-0.218875568,-0.350961964,-0.713398444,0.565669379,0.695416667,-0.28125,10.5585633,0.046523933,-0.011399182,-0.001908954,nan,nan,nan
32.2180341,1524286.082,-4462703.138,4279961.319,-20.14030436,17.09020144,-5.934868389,-0.305218103,-0.137987025,-0.281001963,-0.899354984,0.085416667,0.27875,10.3385633,-0.022198406,0.016962419,0.014453508,42.417548,-71.141836,4.0
32.2924274,1524284.465,-4462701.766,4279960.842,-20.22744008,18.1202405,-5.866060779,-0.305718864,-0.137478496,-0.281485596,-0.899111505,-0.654583333,0.00875,9.6285633,0.018162333,0.010417434,0.007908523,nan,nan,nan
32.3648943,1524276.908,-4462694.996,4279958.651,-20.80681899,22.82562696,-5.335926996,-0.306445794,-0.141801906,-0.288359983,-0.89600877,0.046416667,0.12475,9.9035633,0.031252302,-0.033215797,0.010090185,nan,nan,nan
32.4412166,1524274.996,-4462692.898,4279958.16,-20.92222508,23.99807934,-5.267436851,-0.306771863,-0.142863744,-0.287730381,-0.895930914,-0.424583333,0.02875,9.4885633,-0.017835083,-0.014671674,0.015544339,nan,nan,nan
32.8245382,1524273.518,-4462691.203,4279957.788,-21.08681963,24.88862661,-5.185749043,-0.30669588,-0.144167747,-0.287064596,-0.895961615,0.665416667,-0.39125,9.6385633,-0.028743391,-0.027761643,0.011181016,nan,nan,nan
32.8969688,1524271.952,-4462689.355,4279957.403,-21.18848582,25.8575875,-5.095305674,-0.306793123,-0.145338236,-0.287005591,-0.895758097,-0.234583333,-0.06125,10.0285633,-0.009108437,-0.027761643,0.013362677,nan,nan,nan
32.9667058,1524270.435,-4462687.503,4279957.038,-21.28829911,26.84503953,-4.984194559,-0.307830808,-0.144246716,-0.287830686,-0.895313674,-0.394583333,-0.42125,10.7385633,0.037797287,0.026779896,0.017726,nan,nan,nan
33.0445237,1524268.871,-4462685.532,4279956.672,-21.44074853,27.77774745,-4.906153713,-0.308512021,-0.144429583,-0.286397989,-0.895509141,0.405416667,-0.33125,9.6385633,-0.035288376,0.013689926,0.022089323,nan,nan,nan
33.1157115,1524267.337,-4462683.544,4279956.321,-21.52595819,28.75288069,-4.751881515,-0.309772347,-0.142905556,-0.288156991,-0.894753957,-0.244583333,0.06875,11.1385633,0.068340549,0.030052388,0.018816831,nan,nan,nan
33.1934138,1524265.69,-4462681.344,4279955.958,-21.39539569,29.8642471,-4.761730853,-0.311503622,-0.14260343,-0.285223726,-0.895140872,-3.904583333,0.41875,10.0885633,-0.062559145,0.045324019,0.046087601,nan,nan,nan
33.2689283,1524273.211,-4462692.736,4279973.259,-7.856680035,20.77617298,7.849709161,0.942269252,0.191936902,0.062625557,0.267145883,-1.994583333,0.22875,10.8785633,0.01488984,0.03223405,0.025361816,42.417721,-71.141936,3.8
33.6403186,1524272.597,-4462691.113,4279973.873,-7.967163598,21.47327135,8.113616549,0.943094809,0.190552518,0.059973936,0.265828981,1.995416667,-1.17125,9.9785633,0.021434825,0.068231465,0.048269262,nan,nan,nan
33.719793,1524269.623,-4462683.097,4279976.902,-9.067718045,25.54696071,9.104248317,0.946340016,0.182788023,0.057654714,0.260201934,-0.478583333,-0.16225,10.1245633,0.041069779,0.018053249,0.032997631,nan,nan,nan
33.7956157,1524267.931,-4462678.329,4279978.601,-9.611565773,27.53387407,9.643364885,0.947912971,0.177540722,0.056103012,0.258442923,-0.344583333,-0.27125,10.2385633,0.053068918,0.027870726,0.022089323,nan,nan,nan
33.8656459,1524267.238,-4462676.346,4279979.295,-9.820484168,28.30480057,9.894741775,0.948624645,0.175420459,0.056625519,0.257162393,-0.294583333,-0.30125,10.8185633,0.065068056,-0.003763366,0.032997631,nan,nan,nan
33.9394806,1524266.517,-4462674.268,4279980.022,-10.01440149,29.04635325,10.08491463,0.948998496,0.17526298,0.056397736,0.255937568,0.035416667,-0.33125,9.7585633,0.006163194,0.001690788,0.035179293,nan,nan,nan
34.010493,1524265.804,-4462672.199,4279980.74,-10.18675879,29.73576813,10.25684619,0.949160897,0.175884432,0.057495523,0.254661585,0.385416667,-0.50125,9.4385633,-0.005835945,-0.039760782,0.03081597,nan,nan,nan
34.0811583,1524265.021,-4462669.912,4279981.529,-10.4276178,30.50310846,10.4497532,0.949832442,0.175211882,0.057149646,0.252691603,-0.324583333,-0.65125,9.6485633,0.020343994,0.00496328,0.053723416,nan,nan,nan
34.1515345,1524261.337,-4462684.104,4279987.888,-6.793761279,6.232667231,21.36804722,0.16055392,-0.576532224,-0.426532261,0.67816168,0.195416667,-1.73125,9.3185633,-0.046196684,-0.007035859,0.040633447,42.417883,-71.14204,3.6
34.2217338,1524260.804,-4462683.615,4279989.565,-7.434842325,6.101439054,20.9956181,0.164093921,-0.576311036,-0.427714516,0.676756284,-2.394583333,0.10875,10.2185633,-0.088739084,-0.016853336,0.047178431,nan,nan,nan
34.3038933,1524260.27,-4462683.176,4279991.073,-8.007680975,6.070735152,20.60084017,0.164637567,-0.577968928,-0.426611598,0.675906011,-1.414583333,-0.24125,9.1585633,0.009435686,0.03332488,0.051541754,nan,nan,nan
34.6845686,1524257.274,-4462680.905,4279998.78,-11.3538069,5.843452481,18.22110939,0.161683681,-0.585100743,-0.414705718,0.67788987,-0.415583333,-0.48625,9.9455633,0.062886395,0.015871588,0.040633447,nan,nan,nan
34.7579558,1524256.371,-4462680.441,4280000.229,-12.09473379,5.786841782,17.70612539,0.162137519,-0.585019951,-0.412584941,0.67914413,-0.304583333,-0.40125,10.2785633,0.04216061,-0.033215797,0.032997631,nan,nan,nan
34.8295426,1524255.439,-4462679.995,4280001.594,-12.75645135,5.702810724,17.30869337,0.164399917,-0.585261292,-0.412374805,0.678519645,-1.794583333,-0.11125,10.0485633,-0.036379207,-0.011399182,0.048269262,nan,nan,nan
34.9027028,1524254.526,-4462679.587,4280002.832,-13.37749513,5.654371796,16.89131116,0.165471662,-0.585850246,-0.411558568,0.678246389,-1.024583333,-0.20125,9.8185633,-0.002563452,-0.000490874,0.041724277,nan,nan,nan
34.9744633,1524253.475,-4462679.142,4280004.16,-14.14810608,5.602526259,16.33894122,0.165295887,-0.587750076,-0.409740377,0.677746222,0.385416667,-0.57125,10.5785633,0.036706456,0.034415711,0.046087601,nan,nan,nan
35.0508456,1524252.446,-4462678.735,4280005.348,-14.84045279,5.539423008,15.87781557,0.164898174,-0.589296747,-0.407799939,0.677670382,-0.414583333,-0.46125,10.5285633,0.048705594,0.025689065,0.041724277,nan,nan,nan
35.1228037,1524251.298,-4462678.306,4280006.576,-15.53941379,5.496724998,15.36298099,0.165367212,-0.591404425,-0.407393247,0.675962451,-0.184583333,-0.16125,9.9785633,-0.009108437,0.056232327,0.043905939,nan,nan,nan
35.2013317,1524237.279,-4462668.654,4280012.519,-28.69781858,12.75021287,4.701590425,0.218713158,-0.89126022,0.023152771,0.396590121,-0.727583333,-0.44225,9.9575633,0.001690788,0.009653852,0.043469607,42.41819,-71.142251,3.3
35.2734301,1524226.107,-4462663.691,4280014.35,-32.64012732,14.22637556,-0.358233146,0.221804999,-0.891847539,0.030424832,0.393045595,-0.224583333,-0.87125,10.4885633,0.001690788,0.009653852,0.043469607,nan,nan,nan
35.3577464,1524223.845,-4462662.705,4280014.325,-33.29222484,14.48229125,-1.202223515,0.222342039,-0.891994481,0.032048829,0.392278902,-0.324583333,-0.34125,9.5285633,0.006163194,0.011508265,0.052632585,nan,nan,nan
35.4300641,1524221.298,-4462661.597,4280014.233,-33.98830945,14.77330131,-2.13510135,0.221410248,-0.892381848,0.034315338,0.391732813,-0.134583333,-0.40125,9.2685633,0.047614764,0.002781618,0.046087601,nan,nan,nan
35.5024278,1524208.617,-4462656.085,4280013.436,-37.67268867,16.13485023,-6.735850503,0.226519606,-0.89239161,0.037712606,0.388463438,-0.543583333,-0.37625,9.9675633,-0.016744253,0.012599096,0.03081597,nan,nan,nan
35.5743567,1524221.223,-4462661.228,4280025.562,-24.71317498,3.163098776,2.193719975,-0.456658422,0.465058304,-0.757021292,-0.045854377,-1.814583333,-0.03125,10.3285633,0.017944166,0.011399182,0.042487859,42.418355,-71.142378,3.0
35.6526719,1524219.314,-4462660.983,4280025.731,-25.44816015,3.439281082,1.217462389,-0.455137852,0.465191215,-0.757876536,-0.04549533,-0.384583333,-0.07125,9.9185633,0.02797981,-0.035397459,0.010090185,nan,nan,nan
36.0361783,1524217.373,-4462660.721,4280025.824,-26.16209437,3.717726053,0.242351358,-0.45549446,0.464910805,-0.757856297,-0.045128412,-0.534583333,-0.18125,9.8685633,-0.000381791,0.011508265,0.010090185,nan,nan,nan
36.1122122,1524215.494,-4462660.454,4280025.841,-26.87094407,4.010973642,-0.690513273,-0.454565566,0.464771135,-0.758494719,-0.045207302,-0.914583333,0.29875,10.1985633,0.009435686,-0.028852474,0.008999354,nan,nan,nan
36.1842919,1524213.513,-4462660.158,4280025.791,-27.56388521,4.285650773,-1.614210443,-0.453827946,0.464927906,-0.758889899,-0.044366207,-0.404583333,0.01875,9.7185633,0.02907064,-0.00921752,0.011181016,nan,nan,nan
36.2579438,1524211.559,-4462659.854,4280025.676,-28.2357724,4.477221591,-2.472970196,-0.454652473,0.464270413,-0.758773068,-0.044805639,0.645416667,-0.28125,9.8985633,-0.028743391,0.012599096,0.007908523,nan,nan,nan
36.3289788,1524209.411,-4462659.514,4280025.488,-28.94352806,4.797120295,-3.410396945,-0.455200202,0.463974017,-0.758610273,-0.045070402,-0.644583333,0.32875,9.3585633,-0.015653422,0.009326603,0.001363538,nan,nan,nan
36.4112428,1524206.498,-4462659.031,4280025.145,-29.8704588,5.197527579,-4.60522691,-0.454975619,0.463085134,-0.75918101,-0.046835241,-0.204583333,0.34875,9.1085633,-0.032015883,-0.025579982,0.002454369,nan,nan,nan
36.6947169,1524195.343,-4462657.09,4280023.425,-33.37311991,6.610184718,-9.305431419,-0.452027645,0.468056098,-0.757877473,-0.047076891,-0.471583333,-0.03125,9.7195633,0.018162333,-0.008126689,-0.0248164,nan,nan,nan
36.766207,1524192.707,-4462656.568,4280022.69,-34.08309375,6.950334563,-10.26005946,-0.451923676,0.467799686,-0.758004646,-0.048553077,-0.574583333,0.30875,8.9585633,-0.029834222,-0.021216659,-0.0106356,nan,nan,nan
36.8392065,1524207.014,-4462654.342,4280034.949,-22.15319089,2.91690382,-7.533444686,0.475241955,-0.238332723,0.846712978,-0.020487323,-0.474583333,0.55875,9.6685633,0.002890702,0.034415711,-0.0106356,42.418496,-71.142501,3.0
36.9148111,1524205.264,-4462654.111,4280034.353,-22.98227296,3.259469595,-8.460157629,0.475573366,-0.238420734,0.846531509,-0.019233622,0.345416667,0.23875,9.9385633,-0.02765256,0.001690788,-0.018271416,nan,nan,nan
36.9867897,1524203.618,-4462653.878,4280033.748,-23.76357069,3.552091047,-9.251031099,0.475564462,-0.239223239,0.846315642,-0.018987327,1.175416667,0.30875,9.9685633,0.005072363,0.000599957,-0.02372557,nan,nan,nan
37.060162,1524194.715,-4462652.547,4280030.281,-27.5280823,5.266471547,-13.74431569,0.47290263,-0.244974195,0.846248043,-0.014662749,-0.158583333,0.19475,9.6685633,-0.001472622,-0.017944166,-0.036815539,nan,nan,nan
37.1317702,1524192.535,-4462652.13,4280029.193,-28.31654811,5.63928529,-14.63874921,0.474206724,-0.246291646,0.845122273,-0.015386772,0.375416667,0.40875,9.1785633,0.023616486,0.045324019,-0.026998062,nan,nan,nan
37.208944,1524190.37,-4462651.699,4280028.074,-29.0962637,6.036690404,-15.55532113,0.474919424,-0.248640485,0.844003655,-0.016949329,-0.314583333,0.81875,9.6285633,0.059613902,0.038779034,-0.040088031,nan,nan,nan
37.2808591,1524192.098,-4462649.588,4280044.526,-34.10648579,4.372822574,4.792069419,0.76935419,-0.506514991,-0.138713628,0.363724105,-0.007583333,0.30575,9.5425633,0.026888979,0.012599096,-0.046633016,42.418624,-71.14264,3.1
37.3593753,1524189.437,-4462649.246,4280044.9,-34.38212895,4.229211935,4.648396629,0.767186649,-0.508229966,-0.137815367,0.366242914,0.035416667,0.46875,9.9785633,0.079248856,-0.026670813,-0.05208717,nan,nan,nan
37.4365261,1524176.596,-4462647.667,4280046.636,-35.72877642,3.664026889,3.851330169,0.761531642,-0.512004423,-0.146093346,0.369564289,0.036416667,0.35075,9.5685633,0.017071502,0.036597373,-0.044451354,nan,nan,nan
37.509618,1524173.515,-4462647.351,4280046.968,-35.94280162,3.499274137,3.580762688,0.76173832,-0.509694761,-0.146449573,0.372180743,1.435416667,0.45875,9.3085633,-0.037470037,-0.045214936,-0.056450493,nan,nan,nan
37.5815198,1524170.939,-4462647.1,4280047.225,-36.24996999,3.418573485,3.496225118,0.761485063,-0.508910554,-0.147657078,0.373293362,-1.264583333,0.60875,9.7485633,-0.021107576,0.002781618,-0.046633016,nan,nan,nan
37.6817526,1524161.027,-4462646.165,4280048.181,-37.15708428,2.95789171,2.945949592,0.759951592,-0.505810263,-0.151772416,0.3789389,0.125416667,0.61875,9.7285633,-0.016744253,-0.004854197,-0.054268831,nan,nan,nan
37.7602602,1524158.353,-4462645.953,4280048.393,-37.35362161,2.832521875,2.794028307,0.758900631,-0.505800588,-0.152293425,0.380844207,0.605416667,0.92875,9.6485633,0.017071502,-0.011399182,-0.058632155,nan,nan,nan
37.8323851,1524179.582,-4462642.688,4280057.738,8.297547691,5.780207458,17.20228256,-0.661151665,0.546195136,0.088201191,-0.506724679,0.235416667,0.45875,9.3685633,-0.023289237,0.000599957,-0.056450493,42.41875,-71.142778,3.0
37.9114205,1524180.224,-4462642.24,4280059.069,7.854621915,5.619371668,16.92506954,-0.657879573,0.549009672,0.088626385,-0.507866333,1.495416667,0.30875,9.8985633,0.091247995,0.035506542,-0.061904647,nan,nan,nan
37.9828074,1524180.797,-4462641.83,4280060.304,7.394532461,5.56130753,16.75200154,-0.657014587,0.5469657,0.088384787,-0.511222541,-0.354583333,0.54875,9.5785633,-0.012380929,-0.081212352,-0.073903786,nan,nan,nan
38.0616611,1524181.328,-4462641.43,4280061.508,6.954671487,5.468483004,16.55760723,-0.654971001,0.547443091,0.08864908,-0.513283929,0.295416667,0.53875,9.7685633,0.041069779,-0.014671674,-0.069540462,nan,nan,nan
38.1338148,1524181.872,-4462641.003,4280062.803,6.501527052,5.396101689,16.32600489,-0.653010853,0.547584144,0.089092653,-0.515549155,0.415416667,0.60875,9.2285633,0.02907064,-0.017944166,-0.069540462,nan,nan,nan
38.4127874,1524182.475,-4462640.503,4280064.316,5.937697744,5.36345035,16.19964376,-0.65343452,0.544259668,0.091281253,-0.518143297,-1.124583333,1.32875,9.5085633,-0.071285792,-0.03757912,-0.064086308,nan,nan,nan
38.4899104,1524182.898,-4462640.12,4280065.471,5.564269874,5.266292472,16.04791293,-0.651482566,0.545197917,0.092214934,-0.519447883,0.385416667,1.57875,9.6585633,0.036706456,0.015871588,-0.064086308,nan,nan,nan
38.6906457,1524183.291,-4462639.748,4280066.605,5.151271631,5.201246767,15.88803764,-0.65044532,0.54554736,0.094452039,-0.519978631,-0.064583333,0.98875,9.5185633,-0.009108437,0.040960696,-0.058632155,nan,nan,nan
38.7645023,1524184.191,-4462638.84,4280069.381,4.132254901,5.057615369,15.64396604,-0.64775895,0.546102068,0.098212851,-0.522048955,-0.744583333,1.50875,9.7685633,0.00070904,0.021325742,-0.054268831,nan,nan,nan
38.8359757,1524184.487,-4462638.477,4280070.501,3.729599885,4.938019027,15.40049132,-0.646705137,0.54601148,0.09980632,-0.523146852,1.175416667,0.57875,9.5885633,-0.005835945,0.013689926,-0.059722985,nan,nan,nan
38.914069,1524184.761,-4462638.115,4280071.631,3.288357418,4.838232416,15.22471688,-0.645635164,0.545863082,0.101664341,-0.524264335,0.115416667,0.82875,9.8985633,-0.010199268,0.016962419,-0.062995478,nan,nan,nan
39.288067,1524184.994,-4462637.772,4280072.71,2.861814319,4.747225434,15.05280956,-0.645010478,0.544778488,0.102658074,-0.525965019,0.075416667,0.78875,9.8285633,-0.020016745,-0.02230749,-0.058632155,nan,nan,nan
39.3667227,1524169.548,-4462637.42,4280068.137,-20.98805107,7.028656157,6.10225269,0.179809836,0.64362081,-0.326072678,-0.668653337,0.485416667,1.54875,9.8885633,-0.022198406,0.015871588,-0.054268831,42.418871,-71.142911,3.0
39.440197,1524167.914,-4462636.873,4280068.612,-21.7881919,8.053910581,5.607324479,0.180697637,0.644764696,-0.32452259,-0.66806582,-0.534583333,0.72875,10.1085633,-0.012380929,0.014780757,-0.053178001,nan,nan,nan
39.5222569,1524166.315,-4462636.282,4280069.023,-22.5737945,9.004556006,5.032738921,0.182114339,0.646110071,-0.323906633,-0.666678812,0.975416667,0.85875,10.3485633,0.019253163,0.03332488,-0.055359662,nan,nan,nan
39.9024873,1524164.707,-4462635.64,4280069.382,-23.29149444,9.901168677,4.544233773,0.182886132,0.647205334,-0.322415787,-0.6661276,-0.004583333,0.91875,9.5885633,-0.014562591,0.015871588,-0.054268831,nan,nan,nan
39.9759663,1524162.872,-4462634.86,4280069.74,-24.08714795,10.88790171,4.019984545,0.182694146,0.649160201,-0.320326453,-0.665285537,-0.204583333,1.00875,9.5585633,-0.04074253,0.038779034,-0.050996339,nan,nan,nan
40.0480645,1524160.638,-4462633.85,4280070.112,-25.02817501,12.01422091,3.330566347,0.183757327,0.649976804,-0.317924577,-0.66534755,0.595416667,1.13875,9.3785633,-0.023289237,-0.005945028,-0.054268831,nan,nan,nan
40.1204567,1524158.855,-4462632.994,4280070.35,-25.74512343,12.93831068,2.783804794,0.184300133,0.651029954,-0.315972276,-0.665097723,0.685416667,0.41875,9.8785633,-0.029834222,0.009326603,-0.056450493,nan,nan,nan
40.1924031,1524157.046,-4462632.085,4280070.545,-26.44709722,13.8238919,2.259501417,0.184925023,0.652293018,-0.314633882,-0.664320763,0.525416667,0.65875,9.5785633,-0.01347176,0.025689065,-0.05208717,nan,nan,nan
40.2694818,1524155.083,-4462631.059,4280070.713,-27.27227006,14.75515009,1.614805147,0.186778102,0.652858615,-0.313842092,-0.663620909,1.805416667,1.21875,10.4385633,0.021434825,0.002781618,-0.055359662,nan,nan,nan
40.3411885,1524153.119,-4462629.997,4280070.829,-28.00390833,15.68895936,1.083204428,0.18658272,0.654358631,-0.311457546,-0.663321844,0.375416667,0.52875,9.9385633,-0.052741668,0.022416573,-0.054268831,nan,nan,nan
40.4196577,1524151.056,-4462628.841,4280070.909,-28.82913962,16.58432601,0.549688061,0.187398157,0.655774878,-0.309986931,-0.662381569,0.425416667,1.79875,10.1785633,-0.011290099,0.027870726,-0.057541324,nan,nan,nan
40.4917038,1524149.007,-4462627.662,4280070.948,-29.56074409,17.51942842,0.022760642,0.188141163,0.656648383,-0.30781396,-0.662318934,0.345416667,0.42875,10.1685633,-0.030925053,-0.000490874,-0.061904647,nan,nan,nan
40.5752606,1524146.763,-4462626.332,4280070.95,-30.31752645,18.47490751,-0.619638035,0.187992291,0.658376882,-0.305730327,-0.661609966,1.445416667,0.44875,9.6085633,-0.041833361,0.03332488,-0.050996339,nan,nan,nan
40.6440663,1524156.308,-4462632.491,4280076.978,-23.22743775,9.003783681,1.9548588,0.445810902,0.083960643,0.858875397,0.237773639,0.665416667,1.59875,9.8385633,-0.000381791,0.034415711,-0.070631293,42.418983,-71.143031,2.8
40.7306823,1524154.502,-4462631.791,4280077.13,-23.89355906,10.01699776,1.141321232,0.444465993,0.082691757,0.859113115,0.239868111,0.145416667,1.88875,9.3885633,-0.033106714,-0.020125828,-0.060813816,nan,nan,nan
40.8025606,1524145.565,-4462628.045,4280077.557,-27.45309393,14.67879962,-2.79588971,0.437620856,0.063223587,0.867071191,0.229517571,0.701416667,1.01275,9.8395633,0.101065472,-0.029943305,-0.077176278,nan,nan,nan
40.8790529,1524143.198,-4462626.779,4280077.316,-28.25426162,15.75012026,-3.724042676,0.436719061,0.06091902,0.867156592,0.231527063,0.455416667,1.35875,9.7285633,-0.017835083,-0.003763366,-0.071722124,nan,nan,nan
40.9511691,1524141.168,-4462625.647,4280077.049,-28.97014482,16.62674386,-4.439743609,0.43604126,0.0592436,0.867039898,0.233666494,1.515416667,1.21875,9.6985633,-0.033106714,-0.000490874,-0.070631293,nan,nan,nan
41.0236007,1524139.066,-4462624.441,4280076.726,-29.61132166,17.52057434,-5.227350555,0.435684141,0.057485273,0.866657745,0.23617605,0.105416667,1.33875,9.3985633,-0.041833361,0.011508265,-0.073903786,nan,nan,nan
41.0957074,1524136.934,-4462623.179,4280076.35,-30.27652827,18.40277488,-5.90295049,0.433574212,0.055548418,0.867623784,0.236974147,1.495416667,1.65875,8.9185633,0.007254025,-0.048487428,-0.071722124,nan,nan,nan
41.1726828,1524134.631,-4462621.779,4280075.901,-30.97379354,19.34023616,-6.645137864,0.433085453,0.053055188,0.867718339,0.238090367,1.175416667,1.61875,9.0785633,0.002890702,0.00496328,-0.072812955,nan,nan,nan
41.2447629,1524132.38,-4462620.374,4280075.418,-31.67171269,20.21418823,-7.390900632,0.431707885,0.051406788,0.8679741,0.240013763,1.075416667,1.04875,9.5185633,-0.02656173,-0.02230749,-0.071722124,nan,nan,nan
41.3225117,1524129.892,-4462618.786,4280074.838,-32.36502384,21.23536528,-8.221400029,0.430714325,0.050059536,0.867512213,0.243724791,0.245416667,2.00875,9.5685633,-0.071285792,-0.003763366,-0.076085447,nan,nan,nan
41.3946433,1524143.441,-4462626.102,4280085.71,-10.09702258,24.22322923,-14.00414903,-0.762276953,0.597445386,0.223312186,-0.110111423,1.665416667,0.30875,9.7585633,-0.051650838,0.000599957,-0.071722124,42.419096,-71.143148,2.7
41.4730994,1524142.651,-4462624.205,4280084.613,-10.08306645,24.06226119,-14.3484783,-0.763679505,0.594506444,0.225007005,-0.112816441,0.275416667,0.66875,9.4885633,-0.068013299,-0.024489151,-0.091357078,nan,nan,nan
41.5456922,1524141.821,-4462622.225,4280083.433,-10.03091819,23.93061821,-14.74926979,-0.76524843,0.591434984,0.226098069,-0.116099797,0.955416667,0.53875,9.0585633,-0.064740807,-0.044124105,-0.089175416,nan,nan,nan
41.6296252,1524141.055,-4462620.397,4280082.306,-9.967072357,23.76255033,-15.11623072,-0.76598969,0.589358548,0.227382826,-0.119219742,1.075416667,0.47875,9.6885633,-0.038560868,-0.033215797,-0.092447909,nan,nan,nan
41.7119904,1524140.339,-4462618.69,4280081.22,-9.922346015,23.65191556,-15.35530968,-0.765339219,0.588863569,0.229479849,-0.121797276,0.245416667,1.79875,9.3085633,0.009435686,0.00496328,-0.09462957,nan,nan,nan
41.784207,1524139.615,-4462616.964,4280080.099,-9.866352504,23.50167605,-15.6473707,-0.764107706,0.589017835,0.23174162,-0.124471787,0.645416667,1.15875,9.6985633,0.032343133,0.012599096,-0.095720401,nan,nan,nan
41.8562483,1524138.906,-4462615.277,4280078.976,-9.792353645,23.34187138,-15.96819556,-0.763839728,0.588072653,0.233916404,-0.12650115,1.075416667,0.86875,9.8185633,-0.010199268,0.011508265,-0.085902924,nan,nan,nan
41.9329042,1524138.16,-4462613.497,4280077.759,-9.650119889,23.15918768,-16.37364452,-0.764194538,0.586371472,0.235567219,-0.129163812,2.195416667,0.49875,9.9885633,-0.028743391,-0.015762505,-0.088084586,nan,nan,nan
42.0047304,1524137.46,-4462611.817,4280076.571,-9.631473084,23.0387325,-16.67593047,-0.763773263,0.585510737,0.237746533,-0.131545299,0.295416667,0.89875,9.1785633,-0.003654283,0.007144942,-0.092447909,nan,nan,nan
42.0772162,1524136.703,-4462610.008,4280075.261,-9.504771808,22.90626481,-17.06932686,-0.76278731,0.585252271,0.24019449,-0.133947404,1.875416667,0.83875,9.3185633,0.015980671,0.016962419,-0.088084586,nan,nan,nan
42.1492541,1524136.022,-4462608.365,4280074.037,-9.389352203,22.78780631,-17.34484803,-0.7617921,0.585069811,0.242136709,-0.136879246,1.245416667,1.83875,9.5185633,0.024707317,-0.000490874,-0.098992894,nan,nan,nan
42.2252092,1524135.285,-4462606.577,4280072.676,-9.28958718,22.66513467,-17.66279286,-0.762551651,0.582696929,0.244244455,-0.139010485,1.065416667,1.54875,9.3185633,-0.051650838,-0.003763366,-0.084812093,nan,nan,nan
42.2980266,1524134.618,-4462604.951,4280071.409,-9.247193998,22.52624474,-17.97077806,-0.76219535,0.581765437,0.24608967,-0.141587779,0.585416667,0.87875,9.4885633,-0.003654283,-0.003763366,-0.092447909,nan,nan,nan
42.3757719,1524123.897,-4462614.306,4280103.889,-10.47073349,20.30742651,22.03113021,0.583466772,-0.803884468,-0.053728603,-0.102222925,0.995416667,1.10875,10.0285633,-0.004745114,-0.010308351,-0.091357078,42.419331,-71.143348,2.7
42.5488247,1524122.949,-4462612.466,4280105.885,-10.34316904,20.10766573,21.20337583,0.584930362,-0.803022515,-0.056312506,-0.099197853,1.525416667,0.31875,9.9985633,-0.02765256,-0.020125828,-0.089175416,nan,nan,nan
42.6324225,1524122.204,-4462611.018,4280107.412,-10.27386264,19.93745671,20.54608871,0.58554256,-0.802598034,-0.059052083,-0.097412316,1.075416667,0.37875,10.0385633,-0.010199268,0.00496328,-0.092447909,nan,nan,nan
42.7110684,1524121.462,-4462609.578,4280108.896,-10.20389142,19.75413446,19.90043086,0.585874504,-0.802276559,-0.062324593,-0.096015799,1.055416667,0.60875,10.1485633,-0.001472622,0.022416573,-0.096811232,nan,nan,nan
43.0835515,1524120.704,-4462608.111,4280110.374,-10.02020661,19.60429776,19.25933538,0.586631539,-0.801620072,-0.065694126,-0.094620189,2.635416667,0.72875,9.9185633,-0.015653422,0.023507403,-0.097902063,nan,nan,nan
43.1532429,1524119.985,-4462606.703,4280111.757,-9.990142554,19.45206676,18.61555661,0.585001837,-0.80288936,-0.068211595,-0.092134172,0.565416667,0.45875,9.6485633,0.068340549,-0.014671674,-0.090266247,nan,nan,nan
43.2292324,1524119.274,-4462605.32,4280113.081,-9.975053093,19.30714726,17.97351238,0.587397581,-0.801301622,-0.069998262,-0.089331049,0.385416667,0.42875,9.5385633,-0.070194961,-0.034306628,-0.095720401,nan,nan,nan
43.3011889,1524118.558,-4462603.934,4280114.371,-9.895688722,19.16213576,17.33170097,0.588099429,-0.800722898,-0.072876264,-0.087583972,1.285416667,0.46875,9.6985633,-0.014562591,0.008235772,-0.095720401,nan,nan,nan
43.3791943,1524114.858,-4462596.769,4280120.852,-9.578692347,18.30776293,13.97603374,0.59153312,-0.797939349,-0.086204374,-0.077137345,0.965416667,0.50875,9.8985633,-0.013144511,-0.002781618,-0.092666075,nan,nan,nan
43.5524941,1524114.194,-4462595.5,4280121.82,-9.431738653,18.20565074,13.36187521,0.591956053,-0.797744623,-0.088286326,-0.073464765,2.385416667,0.42875,9.3985633,0.00070904,-0.049578259,-0.112082863,nan,nan,nan
43.6365432,1524113.414,-4462608.015,4280115.86,-11.8132163,8.646920457,7.579077782,0.668937344,-0.553468212,-0.336102932,0.365007654,0.965416667,1.88875,9.8085633,0.096702149,0.002781618,-0.113173694,42.419455,-71.14344,2.7
43.718816,1524112.395,-4462607.269,4280116.513,-11.75103612,8.421043058,7.037012428,0.667692132,-0.551164735,-0.337579575,0.369384193,2.375416667,1.64875,9.5285633,0.001799871,-0.043033274,-0.115355355,nan,nan,nan
43.790534,1524107.968,-4462604.096,4280119.165,-11.96782491,7.349108447,4.846120127,0.663719285,-0.538658595,-0.350194314,0.382998136,1.369416667,0.75475,9.7625633,-0.033106714,-0.012490012,-0.115355355,nan,nan,nan
43.8627244,1524107.095,-4462603.56,4280119.518,-12.0003681,7.158317931,4.49409678,0.663095757,-0.536011272,-0.351473038,0.38660398,0.545416667,1.27875,9.7185633,-0.017835083,-0.051759921,-0.116446186,nan,nan,nan
43.9391883,1524106.198,-4462603.025,4280119.854,-12.07322847,6.984502782,4.222327273,0.661797499,-0.533916682,-0.35431873,0.389121171,-0.754583333,1.35875,9.6185633,-0.024380068,0.00496328,-0.118627848,nan,nan,nan
44.0111493,1524105.332,-4462602.524,4280120.157,-12.08199471,6.804867646,3.895843076,0.659316168,-0.533248669,-0.356854988,0.391921632,0.445416667,1.67875,9.6785633,0.024707317,0.022416573,-0.122991171,nan,nan,nan
44.0811496,1524104.483,-4462602.046,4280120.431,-12.14573045,6.614521547,3.522097661,0.658024791,-0.531541893,-0.358702856,0.394713633,0.775416667,0.64875,9.6985633,-0.004745114,-0.013580843,-0.112082863,nan,nan,nan
44.1526363,1524103.58,-4462601.554,4280120.692,-12.13405174,6.433497551,3.094143679,0.656341339,-0.529875734,-0.361109602,0.397552022,1.595416667,1.45875,9.4085633,-0.003654283,0.000599957,-0.118627848,nan,nan,nan
44.2300761,1524102.707,-4462601.092,4280120.915,-12.18499774,6.202615981,2.72180694,0.654595079,-0.528550626,-0.362639973,0.400788932,0.805416667,0.82875,10.2285633,0.017071502,-0.016853336,-0.114264524,nan,nan,nan
44.3023344,1524101.822,-4462600.641,4280121.113,-12.18033349,6.026177259,2.35018765,0.652077424,-0.527776698,-0.365836995,0.403001344,0.965416667,1.66875,9.5085633,0.009435686,0.042051527,-0.12190034,nan,nan,nan
44.3810369,1524104.129,-4462603.049,4280125.881,-6.072590223,4.980974888,7.293645202,0.714977524,-0.252693502,-0.547984998,0.353080129,0.985416667,0.91875,10.0785633,-0.01347176,0.035506542,-0.112082863,42.419578,-71.143525,2.7
44.4525609,1524101.826,-4462601.16,4280128.648,-4.280181768,5.059015127,5.456847279,0.700814081,-0.24908663,-0.554948169,0.37262314,0.870416667,1.33775,9.7275633,0.048705594,0.034415711,-0.119718678,nan,nan,nan
44.5261046,1524101.517,-4462600.795,4280129.042,-3.941291721,5.031660206,5.023464207,0.698457745,-0.247380836,-0.556951359,0.3751862,1.945416667,1.25875,9.8385633,0.001799871,0.039869865,-0.114264524,nan,nan,nan
44.5975339,1524101.224,-4462600.42,4280129.416,-3.621507598,5.012342331,4.551561793,0.696207877,-0.245548078,-0.558679025,0.377992699,2.155416667,1.04875,9.4285633,0.005072363,0.028961557,-0.114264524,nan,nan,nan
44.6861777,1524100.964,-4462600.06,4280129.742,-3.338561004,4.931394331,4.060849695,0.694058683,-0.244447157,-0.559443452,0.381511673,2.785416667,0.30875,9.7585633,0.039978948,0.012599096,-0.113173694,nan,nan,nan
44.7578994,1524100.719,-4462599.699,4280130.04,-3.059585081,4.84980945,3.588031435,0.692857826,-0.241801405,-0.559997559,0.38455539,2.395416667,0.22875,9.7685633,-0.001472622,-0.019034997,-0.114264524,nan,nan,nan
44.8337298,1524100.501,-4462599.353,4280130.296,-2.805959915,4.79691251,3.182742034,0.691040097,-0.239037756,-0.562369977,0.386088778,1.545416667,0.18875,9.5285633,-0.042924191,0.034415711,-0.108810371,nan,nan,nan
44.9041819,1524100.286,-4462598.985,4280130.54,-2.506330012,4.812468678,2.849845981,0.689682554,-0.235856833,-0.564047254,0.388020908,0.005416667,0.86875,9.3585633,-0.037470037,0.006054111,-0.105537878,nan,nan,nan
44.9771035,1524100.105,-4462598.639,4280130.745,-2.210689986,4.780845158,2.576289622,0.685731488,-0.236551383,-0.566794776,0.390588597,-0.334583333,0.56875,10.1085633,0.049796425,0.105319712,-0.098992894,nan,nan,nan
45.0490034,1524099.902,-4462598.198,4280130.983,-1.910051529,4.734525465,2.041810374,0.684052151,-0.232351128,-0.569380307,0.392290293,1.475416667,0.11875,9.1585633,-0.05492333,0.014780757,-0.104447047,nan,nan,nan
45.1185926,1524096.44,-4462597.147,4280134.999,-3.695072682,3.356872701,4.589386835,0.727631832,-0.27424657,-0.426663051,0.461843455,1.135416667,0.28875,9.5485633,-0.000490874,0.029288807,-0.1105557,42.419691,-71.14359,2.5
45.1935344,1524096.153,-4462596.887,4280135.355,-3.565119081,3.202974357,4.368334944,0.726393154,-0.271285272,-0.428574039,0.463768887,1.415416667,-0.08125,10.3085633,-0.048378345,0.000599957,-0.096811232,nan,nan,nan
45.2656835,1524095.896,-4462596.656,4280135.67,-3.455068568,3.080307142,4.101737383,0.724724755,-0.270008372,-0.429520741,0.466241828,2.005416667,-0.12125,9.6185633,0.003981532,0.003872449,-0.09353874,nan,nan,nan
45.3377336,1524095.639,-4462596.427,4280135.975,-3.381438912,2.884114604,3.798494697,0.721674376,-0.271364419,-0.430677737,0.469109938,2.655416667,-0.98125,9.9785633,0.067249718,0.054050665,-0.086993755,nan,nan,nan
45.72507,1524095.396,-4462596.22,4280136.248,-3.29897628,2.724593758,3.523485305,0.718809817,-0.272043536,-0.431833324,0.472043157,2.235416667,-0.60125,9.8385633,0.055250579,0.044233188,-0.096811232,nan,nan,nan
45.7979554,1524095.157,-4462596.022,4280136.504,-3.188475973,2.59400344,3.279094436,0.716602237,-0.270972536,-0.433899409,0.474116464,1.685416667,-0.04125,9.8685633,-0.006926775,0.037688204,-0.097902063,nan,nan,nan
46.1722092,1524094.927,-4462595.835,4280136.74,-3.078295854,2.517955301,3.081460813,0.715777452,-0.267761479,-0.434360691,0.476756983,0.785416667,0.25875,9.5785633,-0.032015883,-0.043033274,-0.105537878,nan,nan,nan
46.247559,1524094.689,-4462595.64,4280136.978,-2.949885063,2.360320965,2.814524639,0.715039383,-0.264206151,-0.433068013,0.48100508,1.895416667,-0.01125,10.0685633,0.002890702,-0.088848167,-0.118627848,nan,nan,nan
46.3199423,1524094.478,-4462595.472,4280137.179,-2.866293803,2.295581252,2.572690125,0.713540998,-0.26226793,-0.432498658,0.484788293,1.315416667,0.00875,9.0085633,0.025798148,-0.047396597,-0.115355355,nan,nan,nan
46.7030737,1524094.231,-4462595.274,4280137.401,-2.717042214,2.116156509,2.186841895,0.711376569,-0.259057845,-0.435179848,0.48728935,2.925416667,0.13875,9.6085633,-0.045105853,0.014780757,-0.114264524,nan,nan,nan
46.7806097,1524094.036,-4462595.122,4280137.558,-2.612182671,1.954649286,1.949994145,0.709090556,-0.258259155,-0.435422563,0.490815632,1.915416667,-0.25125,10.2185633,0.039978948,-0.003763366,-0.112082863,nan,nan,nan
46.8511031,1524093.846,-4462594.98,4280137.7,-2.530238881,1.757199562,1.710033606,0.706320681,-0.257013924,-0.439170529,0.492122124,2.105416667,-0.69125,10.4685633,-0.039651699,0.080230604,-0.104447047,nan,nan,nan
46.9218034,1524093.663,-4462594.853,4280137.823,-2.38374704,1.512564532,1.345021949,0.702958872,-0.257328149,-0.440532991,0.495541858,4.015416667,-0.01125,10.4985633,0.053068918,0.047505681,-0.118627848,nan,nan,nan
46.9947878,1524093.48,-4462594.736,4280137.927,-2.247991881,1.400810866,1.211084879,0.700261343,-0.25678871,-0.441464433,0.498801328,0.135416667,0.29875,10.4585633,0.033433963,0.01914408,-0.106628709,nan,nan,nan
47.0663481,1524090.151,-4462590.574,4280144.636,-6.784281444,4.558227714,12.170914,0.271383345,0.249403023,-0.15521615,0.916546321,0.795416667,0.19875,10.1585633,-0.006926775,0.01914408,-0.103356217,42.419808,-71.143638,2.4
47.1420047,1524089.618,-4462590.216,4280145.593,-6.78117064,4.881666319,12.41713016,0.266694817,0.250534054,-0.157572471,0.917211796,3.475416667,-0.89125,9.7585633,-0.089829915,0.012599096,-0.103356217,nan,nan,nan
47.2126369,1524089.129,-4462589.864,4280146.488,-6.761656488,5.200832246,12.55074842,0.262285354,0.252929398,-0.157551044,0.917829386,2.645416667,-0.55125,8.7785633,-0.045105853,-0.03757912,-0.127354494,nan,nan,nan
47.291595,1524088.601,-4462589.458,4280147.469,-6.697343505,5.523191993,12.69082845,0.25769771,0.252575735,-0.157302402,0.91926783,2.415416667,-0.06125,9.0685633,-0.015653422,0.034415711,-0.117537017,nan,nan,nan
47.3631347,1524088.116,-4462589.058,4280148.387,-6.602569715,5.809580404,12.85850277,0.254127592,0.250550984,-0.15441937,0.921302356,2.325416667,0.05875,9.7985633,0.071613041,0.06059565,-0.116446186,nan,nan,nan
47.4422842,1524087.597,-4462588.601,4280149.399,-6.495737458,6.115919542,13.08496495,0.249984352,0.249008348,-0.153508614,0.923004752,2.495416667,-0.03125,10.3085633,0.011617348,0.057323158,-0.10771954,nan,nan,nan
47.5138326,1524087.131,-4462588.162,4280150.338,-6.43281926,6.427788286,13.29134727,0.246003375,0.249699054,-0.154378393,0.923742407,2.565416667,-0.56125,9.9885633,-0.051650838,0.010417434,-0.104447047,nan,nan,nan
47.5925563,1524086.626,-4462587.658,4280151.38,-6.459598004,6.694701713,13.56829594,0.240116666,0.251848227,-0.159022091,0.923920144,4.235416667,-0.52125,10.0285633,-0.159643085,0.002781618,-0.118627848,nan,nan,nan
47.6807872,1524086.095,-4462587.108,4280152.495,-6.418515024,7.008533456,13.79979373,0.235228759,0.253081865,-0.15890747,0.924859674,3.105416667,-0.35125,9.8185633,-0.030925053,-0.003763366,-0.120809509,nan,nan,nan
47.7531062,1524085.604,-4462586.572,4280153.55,-6.308055321,7.338766546,13.98791514,0.231340237,0.25208424,-0.155014518,0.926771671,1.995416667,-0.28125,9.9485633,0.082521349,0.028961557,-0.127354494,nan,nan,nan
47.8305455,1524085.152,-4462586.046,4280154.553,-6.208280723,7.662783754,14.14128864,0.228136925,0.251410187,-0.150606117,0.928474157,1.785416667,-0.26125,9.6285633,0.103247134,0.014780757,-0.12190034,nan,nan,nan
47.8997433,1524084.698,-4462585.485,4280155.587,-6.088324018,8.029254421,14.34777366,0.22440373,0.250466255,-0.149795569,0.929769277,1.615416667,-0.77125,10.2485633,0.006163194,0.043142357,-0.104447047,nan,nan,nan
47.9696735,1524084.262,-4462584.911,4280156.614,-5.931386723,8.387068238,14.52110674,0.220113538,0.250131239,-0.150002271,0.930851069,1.005416667,-0.40125,10.2185633,-0.028743391,0.035506542,-0.115355355,nan,nan,nan
48.0456958,1524083.809,-4462584.27,4280157.724,-5.89774247,8.707991036,14.71775682,0.216150031,0.249012923,-0.147684375,0.932448956,2.795416667,-0.37125,9.5485633,0.043251441,0.039869865,-0.116446186,nan,nan,nan
48.1161735,1524082.922,-4462582.917,4280154.563,-4.318825928,7.563661497,9.714463383,0.14561853,0.280229656,-0.211851305,0.92487059,2.392416667,-0.34925,9.9535633,-0.004745114,0.016962419,-0.13608114,42.419928,-71.143689,2.2
48.1943889,1524082.585,-4462582.326,4280155.322,-4.231138548,7.808624765,9.860539681,0.140539799,0.282021963,-0.210102191,0.925510263,2.545416667,-0.27125,9.5485633,0.001799871,-0.016853336,-0.144807786,nan,nan,nan
48.5635268,1524082.279,-4462581.762,4280156.035,-4.043812702,8.062190383,9.975955589,0.136529711,0.28006265,-0.205848427,0.927658868,1.115416667,-0.23125,10.0785633,0.09779298,0.073685619,-0.132808648,nan,nan,nan
48.6637254,1524081.93,-4462581.066,4280156.895,-3.857696279,8.373780667,10.13806642,0.131275985,0.280882596,-0.200672272,0.929302008,1.505416667,-0.43125,10.0185633,0.082521349,0.001690788,-0.155716094,nan,nan,nan
48.7329007,1524081.652,-4462580.463,4280157.626,-3.712893568,8.596076475,10.25607232,0.126161219,0.279773307,-0.200020144,0.93048492,1.705416667,0.21875,9.9085633,-0.012380929,0.063868142,-0.134990309,nan,nan,nan
48.807123,1524081.382,-4462579.836,4280158.373,-3.622021615,8.799509974,10.44962597,0.121327352,0.282093707,-0.197026771,0.931065662,2.855416667,-0.06125,10.3485633,0.034524794,-0.038669951,-0.161170248,nan,nan,nan
48.8794001,1524081.123,-4462579.209,4280159.118,-3.454024369,9.019234091,10.55208127,0.115873367,0.281867122,-0.19576295,0.932095036,1.305416667,0.39875,9.9585633,-0.003654283,0.039869865,-0.154625263,nan,nan,nan
48.9520681,1524080.858,-4462578.516,4280159.929,-3.324159439,9.272956938,10.62757829,0.109484047,0.28430158,-0.194765573,0.932336971,1.525416667,0.33875,9.1685633,-0.028743391,-0.027761643,-0.175351048,nan,nan,nan
49.0235096,1524080.618,-4462577.846,4280160.696,-3.212203671,9.487515796,10.76498756,0.103897561,0.285171754,-0.193084823,0.933059815,2.205416667,0.22875,9.8885633,0.00070904,0.008235772,-0.16444274,nan,nan,nan
49.09951,1524080.368,-4462577.107,4280161.535,-3.186071263,9.725840557,10.95019323,0.097904721,0.284626808,-0.190209713,0.934463756,3.395416667,-0.12125,9.5285633,0.033433963,0.045324019,-0.165533571,nan,nan,nan
49.1721755,1524080.137,-4462576.404,4280162.327,-3.182744173,9.96701104,11.15660955,0.090989074,0.288579666,-0.192771312,0.933424869,3.755416667,-0.52125,9.6585633,-0.136735639,-0.067031552,-0.176441879,nan,nan,nan
49.250301,1524079.886,-4462575.618,4280163.207,-2.984502271,10.13278328,11.26829043,0.08480207,0.28671717,-0.189632129,0.935222716,1.415416667,1.28875,10.3385633,0.04216061,0.080230604,-0.16444274,nan,nan,nan
49.657992,1524079.672,-4462574.891,4280164.015,-2.961635136,10.32632866,11.53476878,0.079063316,0.289805608,-0.186595986,0.935384221,4.135416667,-0.24125,10.6685633,0.026888979,-0.056123244,-0.190622679,nan,nan,nan
49.7302283,1524079.44,-4462574.082,4280164.919,-2.97070556,10.58096263,11.78912256,0.072173392,0.290305874,-0.184068331,0.936286469,4.155416667,-0.50125,9.8785633,0.012708179,0.022416573,-0.187350187,nan,nan,nan
49.8026023,1524077.203,-4462574.999,4280164.076,-5.285095452,7.83134873,10.74930898,-0.052728238,0.250379764,-0.291378532,0.921752818,3.705416667,0.07875,9.5885633,0.006163194,-0.02230749,-0.192804341,42.420048,-71.143725,1.8
49.8741517,1524076.785,-4462574.38,4280164.926,-5.263392111,7.856876229,10.91341623,-0.058942353,0.253177139,-0.28776263,0.921748233,2.325416667,0.30875,10.9285633,0.048705594,-0.014671674,-0.188441018,nan,nan,nan
50.2495195,1524076.262,-4462573.598,4280166.011,-5.235480698,7.846143809,11.03686576,-0.068393904,0.253966185,-0.285429909,0.921603613,1.925416667,1.15875,10.5785633,-0.004745114,0.042051527,-0.19171351,nan,nan,nan
50.3220288,1524074.307,-4462570.668,4280170.133,-5.441533697,8.222452915,11.72091695,-0.102977839,0.262310579,-0.285681656,0.915955631,2.854416667,0.20175,10.0225633,-0.053832499,0.003872449,-0.185168525,nan,nan,nan
50.7008256,1524073.877,-4462570.019,4280171.058,-5.39902194,8.285279792,11.72277877,-0.109152079,0.264464526,-0.282513025,0.915604024,0.925416667,0.84875,9.3485633,0.035615625,0.000599957,-0.180805202,nan,nan,nan
50.7699281,1524073.491,-4462569.427,4280171.896,-5.342391875,8.361349935,11.76523329,-0.115466686,0.265185255,-0.281402873,0.914962649,1.025416667,0.31875,9.6985633,-0.021107576,0.030052388,-0.17753271,nan,nan,nan
50.8402058,1524073.071,-4462568.769,4280172.822,-5.275543385,8.434567544,11.84071351,-0.12193202,0.264987504,-0.278392666,0.915102032,1.145416667,0.23875,10.0585633,0.026888979,0.06059565,-0.168806064,nan,nan,nan
51.2124101,1524072.691,-4462568.162,4280173.674,-5.230560738,8.488616279,11.95124357,-0.127390805,0.26557907,-0.274340876,0.915410522,1.585416667,0.24875,10.4785633,0.067249718,0.043142357,-0.172078556,nan,nan,nan
51.2821655,1524072.282,-4462567.498,4280174.609,-5.118714637,8.576993094,12.00365531,-0.13376337,0.266137367,-0.272437133,0.914907794,0.435416667,0.07875,9.9885633,-0.000381791,0.034415711,-0.167715233,nan,nan,nan
51.457532,1524073.226,-4462567.624,4280172.74,-2.945205249,6.220638727,8.675741849,-0.165246754,0.37808586,-0.388291531,0.823998956,2.705416667,0.18875,9.8885633,0.005072363,-0.007035859,-0.17753271,42.420156,-71.143741,1.5
51.5279413,1524072.993,-4462567.132,4280173.426,-2.842420568,6.180057086,8.512584519,-0.170385115,0.379516647,-0.383683007,0.824453381,1.175416667,0.33875,9.3085633,0.057432241,0.044233188,-0.16335191,nan,nan,nan
51.6004545,1524072.733,-4462566.566,4280174.205,-2.703217802,6.096940276,8.395697675,-0.177422868,0.381407462,-0.382002778,0.822875052,1.595416667,0.12875,10.0485633,-0.034197545,0.018053249,-0.162261079,nan,nan,nan
51.6826626,1524072.538,-4462566.127,4280174.81,-2.56629435,6.019401582,8.217459261,-0.181288564,0.382563139,-0.375144226,0.824649448,0.415416667,0.59875,9.8685633,0.14033538,0.067140635,-0.16444274,nan,nan,nan
51.7606786,1524072.357,-4462565.702,4280175.39,-2.449292042,5.987484467,8.110346268,-0.185741864,0.383961984,-0.371187131,0.824798926,1.255416667,-0.02125,9.6785633,0.053068918,0.036597373,-0.161170248,nan,nan,nan
52.4291242,1524072.176,-4462565.258,4280175.991,-2.364380153,5.942425726,8.055489692,-0.1909361,0.385841207,-0.368607727,0.823892173,2.155416667,0.06875,9.8785633,0.003981532,0.013689926,-0.165533571,nan,nan,nan
52.8079077,1524072.006,-4462564.831,4280176.57,-2.27564669,5.894928969,7.972738648,-0.196353448,0.386686474,-0.366683564,0.823080833,1.765416667,0.26875,9.7885633,-0.017835083,0.037688204,-0.157897756,nan,nan,nan
53.1794225,1524071.838,-4462564.398,4280177.156,-2.190192538,5.846059171,7.908189189,-0.20121045,0.388415507,-0.364196593,0.822197416,1.995416667,0.19875,9.8785633,0.005072363,0.013689926,-0.156806925,nan,nan,nan
53.2489702,1524071.682,-4462563.981,4280177.72,-2.048230286,5.788658435,7.737589959,-0.206183349,0.388706332,-0.360453235,0.822477525,0.275416667,0.47875,9.7385633,0.036706456,0.068231465,-0.156806925,nan,nan,nan
53.3230909,1524071.525,-4462563.536,4280178.315,-1.968391129,5.740377455,7.678433366,-0.211247435,0.389938859,-0.356148906,0.822484143,2.095416667,0.27875,9.8485633,0.047614764,0.044233188,-0.16335191,nan,nan,nan
53.3944522,1524071.384,-4462563.124,4280178.865,-1.834274655,5.701632596,7.509938745,-0.215691454,0.39106312,-0.352896087,0.822198994,0.305416667,0.42875,9.4985633,0.030161471,0.034415711,-0.15026194,nan,nan,nan
53.678321,1524071.24,-4462562.678,4280179.454,-1.70246057,5.701988459,7.459784408,-0.220607773,0.391846578,-0.350283737,0.821638469,1.795416667,-0.49125,9.7585633,0.005072363,0.036597373,-0.139353632,nan,nan,nan
53.7500406,1524071.117,-4462562.266,4280179.992,-1.59938402,5.687458031,7.4208115,-0.225211544,0.393319038,-0.348882173,0.820281125,1.985416667,-0.21125,9.8385633,-0.022198406,0.00496328,-0.142626125,nan,nan,nan
53.8248445,1524070.989,-4462561.812,4280180.585,-1.448584248,5.652663543,7.297315648,-0.230445085,0.394101985,-0.347332726,0.819108458,0.885416667,0.04875,9.7885633,-0.025470899,0.026779896,-0.13608114,nan,nan,nan
53.8963519,1524074.712,-4462562.439,4280176.893,4.586629136,3.733378078,0.625653727,-0.325326798,0.716909103,-0.319110398,0.527610052,0.885416667,-0.64125,9.2585633,-0.024380068,0.039869865,-0.122991171,42.420211,-71.143703,1.2
53.9696862,1524075.064,-4462562.153,4280176.941,4.869691652,3.662275052,0.084652222,-0.330193089,0.716708592,-0.316346094,0.526522997,1.905416667,-0.34125,9.6585633,-0.063649976,0.04641485,-0.126263663,nan,nan,nan
54.0414519,1524075.464,-4462561.852,4280176.947,5.179735095,3.596574856,-0.525490086,-0.334077094,0.717238552,-0.313327881,0.525154258,1.525416667,-0.56125,9.6885633,-0.035288376,0.023507403,-0.117537017,nan,nan,nan
54.1176642,1524075.859,-4462561.578,4280176.907,5.462154853,3.52956584,-1.106723908,-0.337261954,0.718486651,-0.310597326,0.523030218,1.315416667,-0.50125,9.7585633,-0.028743391,-0.007035859,-0.124082002,nan,nan,nan
54.4912533,1524076.251,-4462561.324,4280176.828,5.731257488,3.455744474,-1.658661654,-0.340412879,0.719130134,-0.307933091,0.521678191,1.285416667,-0.47125,9.9185633,-0.029834222,0.015871588,-0.117537017,nan,nan,nan
54.5693998,1524078.392,-4462560.034,4280176.208,7.029134271,3.082695512,-4.454036054,-0.351010679,0.72489629,-0.295959382,0.513541544,1.398416667,-0.24625,9.7015633,-0.010199268,-0.008126689,-0.100083724,nan,nan,nan
54.6650416,1524078.936,-4462559.795,4280175.864,7.26136658,3.000877894,-5.108393905,-0.354247235,0.724932073,-0.293685567,0.512573091,0.375416667,-0.02125,9.7085633,-0.037470037,0.026779896,-0.09462957,nan,nan,nan
54.7350384,1524079.459,-4462559.579,4280175.495,7.515619826,2.914348991,-5.6513072,-0.356336626,0.725686695,-0.29096189,0.511609431,1.405416667,-0.18125,9.8985633,-0.003654283,0.013689926,-0.100083724,nan,nan,nan
54.8043103,1524079.995,-4462559.371,4280175.092,7.751297229,2.85610037,-6.159019796,-0.358202764,0.727012436,-0.288655393,0.509727144,1.695416667,-0.13125,9.3785633,-0.006926775,-0.019034997,-0.103356217,nan,nan,nan
54.8784377,1524080.605,-4462559.146,4280174.608,8.006624251,2.753796102,-6.807321329,-0.359909663,0.727789822,-0.285555305,0.50916125,0.655416667,-0.05125,9.9885633,0.011617348,0.020234911,-0.090266247,nan,nan,nan
54.9505059,1524075.671,-4462552.384,4280186.887,6.686205014,8.308890849,11.31525134,-0.078840787,0.139869192,-0.294573447,0.942044173,0.845416667,0.13875,9.8785633,-0.015653422,0.006054111,-0.095720401,42.420338,-71.143656,0.7
55.0237067,1524076.255,-4462551.657,4280187.876,6.585475179,8.40244243,11.4540626,-0.083174086,0.139668504,-0.29462922,0.941683813,1.035416667,0.05875,10.0485633,-0.017835083,0.03223405,-0.092447909,nan,nan,nan
55.2005547,1524078.714,-4462548.52,4280192.152,6.087675203,8.941457005,12.04487075,-0.101045305,0.138819105,-0.291558895,0.941016745,1.204416667,-0.20625,9.7925633,0.00070904,0.03332488,-0.091357078,nan,nan,nan
55.2727265,1524079.184,-4462547.83,4280193.083,6.028691883,9.030691901,12.13684945,-0.104704286,0.139452399,-0.290963148,0.94070744,0.395416667,0.11875,9.7785633,0.00070904,0.012599096,-0.096811232,nan,nan,nan
55.3441336,1524079.61,-4462547.191,4280193.941,6.004111363,9.090839089,12.22015679,-0.107948864,0.140367747,-0.290114947,0.94046651,-0.044583333,0.25875,10.0285633,0.010526517,0.003872449,-0.097902063,nan,nan,nan
55.4224004,1524080.085,-4462546.473,4280194.907,5.96748127,9.158668467,12.31708376,-0.111708789,0.141542785,-0.289567894,0.940019799,0.075416667,0.26875,10.0385633,-0.000381791,-0.000490874,-0.101174555,nan,nan,nan
55.4951852,1524080.519,-4462545.807,4280195.802,5.932620812,9.224462009,12.38881273,-0.115160876,0.142512281,-0.288707343,0.939721391,0.015416667,0.35875,9.8185633,0.009435686,0.003872449,-0.101174555,nan,nan,nan
55.5740041,1524080.955,-4462545.129,4280196.712,5.891865274,9.286500495,12.44651403,-0.118562529,0.143090551,-0.287080936,0.939708762,0.005416667,0.53875,9.6785633,0.030161471,0.016962419,-0.097902063,nan,nan,nan
55.6650683,1524079.047,-4462549.858,4280188.356,6.439165302,-3.236713517,-2.423392582,-0.136552731,0.471409253,-0.702054023,0.515991102,-0.074583333,0.50875,9.6785633,0.015980671,0.020234911,-0.103356217,42.42035,-71.143606,1.0
55.7374413,1524079.597,-4462550.135,4280188.149,6.427659924,-3.323897206,-3.466048875,-0.139832158,0.473889742,-0.6998036,0.515897666,-0.834583333,1.37875,9.7685633,-0.002563452,0.030052388,-0.105537878,nan,nan,nan
55.8084854,1524080.05,-4462550.369,4280187.905,6.425162777,-3.423300957,-4.316480413,-0.141904027,0.476281783,-0.69773292,0.515933797,-0.624583333,1.19875,10.0685633,0.012708179,0.014780757,-0.105537878,nan,nan,nan
55.8822097,1524080.529,-4462550.624,4280187.583,6.388186833,-3.514387048,-5.24886024,-0.144751945,0.478697167,-0.69624098,0.514921738,-0.824583333,1.84875,9.9685633,-0.025470899,0.012599096,-0.10771954,nan,nan,nan
55.9542917,1524080.985,-4462550.875,4280187.209,6.383830727,-3.589365838,-6.124085111,-0.14662224,0.481614637,-0.693943038,0.514774048,-0.974583333,1.31875,9.8385633,0.017071502,0.001690788,-0.115355355,nan,nan,nan
56.0267852,1524081.438,-4462551.13,4280186.773,6.330616729,-3.691163569,-6.995332246,-0.149227962,0.484282946,-0.691612234,0.514658685,-0.444583333,1.87875,9.9585633,0.007254025,0.020234911,-0.12190034,nan,nan,nan
56.0985436,1524081.9,-4462551.399,4280186.263,6.287968198,-3.818185662,-7.881441262,-0.15115609,0.487587951,-0.688889781,0.514626754,-0.324583333,1.68875,10.2285633,0.025798148,0.000599957,-0.126263663,nan,nan,nan
56.1750359,1524082.393,-4462551.699,4280185.645,6.259240031,-3.928889779,-8.819669861,-0.154011383,0.490870555,-0.686581292,0.513743829,-0.484583333,1.41875,9.9285633,-0.008017606,0.00496328,-0.127354494,nan,nan,nan
56.247138,1524082.845,-4462551.982,4280185.009,6.231602368,-4.022741097,-9.716553894,-0.156650829,0.493749008,-0.683929777,0.513724143,-0.874583333,1.66875,10.0185633,0.013799009,0.020234911,-0.128445325,nan,nan,nan
56.4257468,1524083.329,-4462552.295,4280184.253,6.119264264,-4.166525539,-10.64347972,-0.160023174,0.496718803,-0.680296196,0.514645606,0.225416667,2.29875,9.9685633,0.033433963,0.04641485,-0.139353632,nan,nan,nan
56.8093719,1524083.774,-4462552.598,4280183.48,6.02608489,-4.282507528,-11.53330323,-0.162659257,0.500096222,-0.677255496,0.514558771,-0.274583333,2.35875,9.9285633,0.020343994,0.013689926,-0.142626125,nan,nan,nan
56.8857098,1524084.241,-4462552.93,4280182.585,5.957748283,-4.431990227,-12.45519612,-0.16580149,0.503603509,-0.673937711,0.514491335,-0.044583333,1.83875,10.1685633,0.017071502,0.021325742,-0.145898617,nan,nan,nan
56.958077,1524084.671,-4462553.25,4280181.686,5.875815251,-4.564118263,-13.28926728,-0.168153883,0.50738794,-0.671018213,0.513825173,0.215416667,1.89875,9.8785633,0.013799009,-0.005945028,-0.148080279,nan,nan,nan
57.0305367,1524085.178,-4462553.644,4280180.54,5.785445535,-4.741676027,-14.29713369,-0.171648043,0.511689063,-0.666635523,0.514109261,0.185416667,1.90875,10.1485633,0.032343133,0.023507403,-0.158988587,nan,nan,nan
57.1063193,1524080.334,-4462546.882,4280191.012,1.155385861,-2.68658275,-0.437116582,-0.214468246,-0.013828416,-0.574033385,0.790125193,-0.104583333,1.64875,10.1085633,-0.002563452,0.007144942,-0.155716094,42.420388,-71.143578,1.0
57.1790453,1524080.426,-4462547.095,4280190.978,0.719612915,-2.898766053,-0.832028218,-0.219507597,-0.010406002,-0.573649339,0.789071965,-0.144583333,1.90875,9.9885633,0.012708179,0.007144942,-0.155716094,nan,nan,nan
57.2507663,1524080.477,-4462547.302,4280190.918,0.337765103,-3.125500973,-1.201830907,-0.224647307,-0.007910722,-0.572904341,0.788195169,-0.534583333,2.16875,10.3285633,0.019253163,0.03223405,-0.158988587,nan,nan,nan
57.3298488,1524080.501,-4462547.526,4280190.832,-0.073527989,-3.323471453,-1.571433397,-0.229856803,-0.005530295,-0.572364073,0.787105225,-0.084583333,2.16875,10.0585633,0.010526517,0.034415711,-0.158988587,nan,nan,nan
57.4017605,1524080.496,-4462547.768,4280190.718,-0.450698496,-3.53725322,-1.910355373,-0.234415831,-0.00182313,-0.571978472,0.786057582,-0.564583333,1.57875,10.2385633,0.015980671,-0.005945028,-0.16335191,nan,nan,nan
57.4805267,1524080.461,-4462548.042,4280190.57,-0.865017305,-3.722480381,-2.23756621,-0.239993699,0.001553804,-0.570385142,0.785532558,-0.104583333,1.14875,9.9485633,0.045433102,0.023507403,-0.166624402,nan,nan,nan
57.5522348,1524080.399,-4462548.308,4280190.41,-1.310616883,-3.867915203,-2.513147548,-0.244343298,0.004682768,-0.570373441,0.784186562,0.875416667,1.08875,9.9885633,-0.000381791,0.000599957,-0.154625263,nan,nan,nan
57.6569288,1524080.297,-4462548.612,4280190.213,-1.761846551,-4.061974777,-2.837648525,-0.24933273,0.008304642,-0.569914413,0.78291876,0.185416667,1.24875,10.1485633,0.012708179,0.002781618,-0.160079417,nan,nan,nan
57.7296363,1524080.17,-4462548.904,4280190.008,-2.171308628,-4.216121616,-3.135030119,-0.254265344,0.011304219,-0.569120937,0.781871287,0.245416667,1.16875,9.8385633,0.020343994,0.018053249,-0.162261079,nan,nan,nan
57.8007735,1524080.0,-4462549.234,4280189.763,-2.680134135,-4.413882758,-3.391002906,-0.259937148,0.014977733,-0.5662327,0.78204148,1.045416667,0.84875,10.7085633,0.082521349,0.027870726,-0.166624402,nan,nan,nan
58.3782767,1524082.931,-4462543.427,4280194.355,-2.842721974,2.428589406,7.915898909,-0.025922718,-0.485258816,0.129077617,0.864402027,0.081416667,1.49775,10.1355633,0.04216061,0.015871588,-0.161170248,42.420426,-71.143531,1.3
58.4473072,1524082.682,-4462543.214,4280195.049,-3.842394385,3.1415277,7.744776237,-0.032982497,-0.487384048,0.127418919,0.863211077,0.735416667,1.22875,10.1685633,0.047614764,0.03332488,-0.16444274,nan,nan,nan
58.5174411,1524082.403,-4462542.986,4280195.612,-4.699746639,3.754997766,7.533169014,-0.038531113,-0.486795001,0.124556376,0.86373126,1.695416667,0.86875,10.1085633,0.005072363,-0.043033274,-0.167715233,nan,nan,nan
58.6099789,1524082.045,-4462542.7,4280196.186,-5.586123998,4.417931582,7.326476319,-0.044936833,-0.486440659,0.122953672,0.863851007,1.445416667,0.64875,10.1285633,0.045433102,-0.032124967,-0.16444274,nan,nan,nan
58.6839755,1524081.644,-4462542.383,4280196.712,-6.350556612,5.011669563,7.274060567,-0.050400052,-0.487765778,0.122067465,0.862927526,-0.724583333,1.25875,10.1785633,0.054159748,0.024598234,-0.14917111,nan,nan,nan
58.7561821,1524081.179,-4462542.016,4280197.244,-7.136320644,5.646343055,7.149156796,-0.055197757,-0.488902148,0.119784025,0.862310666,0.105416667,0.76875,9.8585633,0.010526517,0.015871588,-0.148080279,nan,nan,nan
58.8351035,1524080.669,-4462541.612,4280197.755,-7.886856461,6.234664263,7.050823362,-0.060357792,-0.489743449,0.118659661,0.86164272,-0.304583333,1.19875,9.7185633,0.044342271,0.010417434,-0.143716956,nan,nan,nan
58.9062137,1524080.065,-4462541.134,4280198.295,-8.689135337,6.910028402,6.925688554,-0.064370266,-0.490653246,0.115598793,0.861250707,-0.124583333,0.61875,9.7185633,-0.017835083,0.008235772,-0.132808648,nan,nan,nan
59.2810429,1524079.431,-4462540.631,4280198.8,-9.493681722,7.548411429,6.795966003,-0.069023659,-0.491054305,0.113794638,0.86090196,0.275416667,0.76875,10.0985633,0.020343994,-0.003763366,-0.13608114,nan,nan,nan
59.3500303,1524078.689,-4462540.04,4280199.332,-10.36091684,8.238446911,6.652348057,-0.07407492,-0.492697398,0.112265196,0.859743396,0.345416667,0.72875,10.1285633,0.030161471,0.03332488,-0.137171971,nan,nan,nan
59.4208854,1524077.949,-4462539.452,4280199.806,-11.19276293,8.846428272,6.48412469,-0.079318802,-0.493462436,0.111782453,0.858899316,1.045416667,1.11875,10.2685633,0.061795564,0.012599096,-0.137171971,nan,nan,nan
59.4946246,1524077.066,-4462538.754,4280200.318,-12.05444042,9.474437371,6.364224091,-0.0837925,-0.495476067,0.109614429,0.857593704,-0.084583333,1.62875,9.9085633,0.008344855,0.043142357,-0.132808648,nan,nan,nan
59.5667226,1524076.081,-4462537.98,4280200.838,-12.93233565,10.07093007,6.257433013,-0.090826989,-0.496906484,0.111171393,0.855847724,-0.434583333,2.24875,9.6785633,0.119609595,0.035506542,-0.13608114,nan,nan,nan
59.750408,1524075.094,-4462537.211,4280201.316,-13.75813883,10.74570358,6.135593816,-0.095852039,-0.498084677,0.109831783,0.854787121,-0.124583333,0.84875,10.0185633,0.035615625,0.022416573,-0.13608114,nan,nan,nan
59.8222314,1524086.35,-4462539.507,4280197.486,-1.561383539,9.605139178,7.845055923,-0.108901237,-0.090586029,0.251940544,0.957319515,0.775416667,2.36875,10.2385633,0.05634141,0.015871588,-0.139353632,42.420454,-71.143475,1.7
59.8919718,1524086.227,-4462538.752,4280198.103,-1.885252782,10.42277663,8.039382806,-0.114468371,-0.091109197,0.253578509,0.956187245,0.215416667,1.63875,9.7785633,0.058523071,-0.015762505,-0.138262802,nan,nan,nan
59.9626165,1524086.091,-4462538.003,4280198.681,-2.185064861,11.16103577,8.266002714,-0.119002753,-0.092811922,0.253481245,0.955495448,0.075416667,2.12875,10.2885633,0.008344855,0.014780757,-0.134990309,nan,nan,nan
60.0387187,1524085.932,-4462537.187,4280199.285,-2.482447602,11.88713306,8.463151784,-0.123680919,-0.094430471,0.255344637,0.954245793,-0.004583333,2.17875,9.7185633,0.063977225,0.01914408,-0.132808648,nan,nan,nan
60.1107589,1524085.754,-4462536.338,4280199.89,-2.783731222,12.67488595,8.635452999,-0.128677291,-0.094706619,0.255036975,0.953639845,0.375416667,1.21875,10.0385633,0.008344855,-0.027761643,-0.138262802,nan,nan,nan
60.1887322,1524085.538,-4462535.355,4280200.56,-3.04262549,13.46190047,8.874045152,-0.134463438,-0.095208078,0.254545147,0.952922754,-0.784583333,2.00875,10.0585633,0.005072363,-0.025579982,-0.14917111,nan,nan,nan
60.2613393,1524085.316,-4462534.373,4280201.207,-3.358295095,14.21739131,9.085083108,-0.140279399,-0.095954305,0.255457849,0.951764545,0.235416667,2.04875,10.1185633,0.044342271,-0.014671674,-0.158988587,nan,nan,nan
60.3392052,1524085.057,-4462533.276,4280201.908,-3.669292255,15.05475514,9.291003456,-0.146164026,-0.096860048,0.257616713,0.950204104,0.105416667,1.47875,10.1385633,0.074885533,-0.004854197,-0.151352771,nan,nan,nan
60.4118278,1524084.794,-4462532.197,4280202.574,-3.954322899,15.80351491,9.46838147,-0.151402553,-0.097452731,0.256815686,0.949539855,0.005416667,1.75875,9.7585633,-0.004745114,-0.02339832,-0.148080279,nan,nan,nan
60.4906507,1524084.48,-4462530.941,4280203.327,-4.261166616,16.60259892,9.706879772,-0.157608443,-0.099191445,0.257187958,0.94824838,-0.344583333,2.28875,9.9785633,0.025798148,0.006054111,-0.16335191,nan,nan,nan
60.5628005,1524084.17,-4462529.735,4280204.032,-4.597735389,17.30631587,9.913411884,-0.163368054,-0.100695772,0.257416403,0.947052288,0.295416667,2.79875,9.7385633,0.023616486,0.002781618,-0.165533571,nan,nan,nan
