# t [sec],r_ecef_X,r_ecef_Y,r_ecef_Z,v_ecef_X,v_ecef_Y,v_ecef_Z,q_e2b_scalar,q_e2b_i,q_e2b_j,q_e2b_k,accel_X [m/s^2],accel_Y [m/s^2],accel_Z [m/s^2],gyro_X [rad/s],gyro_Y [rad/s],gyro_Z [rad/s],gps_lat [deg],gps_long [deg],gps_alt [m]
179.87863,1523479.04,-4461289.012,4281705.137,2.382033758,13.38401091,16.86037027,-0.779425001,0.366571237,0.001939221,0.508053576,2.865416667,1.02875,9.6185633,0.020343994,0.034415711,-0.055359662,nan,nan,nan
179.954448,1523479.955,-4461283.869,4281711.615,3.20764117,14.80187503,17.97914359,-0.783646181,0.367400578,0.007490329,0.500858637,3.185416667,1.23875,10.4485633,0.010090185,0.006599526,-0.050887256,nan,nan,nan
180.031826,1523480.177,-4461282.844,4281712.86,3.362263648,15.01064098,18.15435168,-0.784991892,0.367331029,0.008602428,0.498780156,2.505416667,0.89875,10.5885633,0.00070904,0.003872449,-0.078267109,nan,nan,nan
180.105099,1523476.354,-4461282.53,4281712.284,-2.320051071,8.724568434,15.85896067,-0.176975306,0.478476374,-0.450522273,0.732645742,1.595416667,-0.08125,9.8085633,-0.003654283,-0.016853336,-0.081539601,42.438941,-71.145565,-0.2
180.176818,1523476.182,-4461281.881,4281713.464,-2.232149181,8.605276135,15.60357154,-0.179064484,0.479662318,-0.44906266,0.732258629,2.505416667,0.49875,9.3485633,0.002890702,0.003872449,-0.076085447,nan,nan,nan
180.248137,1523476.013,-4461281.229,4281714.646,-2.171467557,8.458743276,15.33225984,-0.181644537,0.480501456,-0.448086337,0.73167086,2.605416667,1.02875,9.3985633,-0.016744253,0.011508265,-0.074994616,nan,nan,nan
180.320705,1523475.859,-4461280.632,4281715.728,-2.128892388,8.220788949,15.12124051,-0.183172666,0.482454963,-0.446407685,0.731030206,3.435416667,1.64875,10.5685633,0.015980671,-0.021216659,-0.082630432,nan,nan,nan
180.703955,1523475.692,-4461279.986,4281716.917,-2.056614394,8.139324819,14.82398994,-0.185383647,0.483585398,-0.444474691,0.730903766,2.225416667,0.58875,8.6885633,0.012708179,0.011508265,-0.078267109,nan,nan,nan
181.080399,1523475.544,-4461279.399,4281717.985,-2.052056322,7.867443371,14.58035716,-0.188068855,0.484116073,-0.443420172,0.730506869,3.395416667,2.48875,10.5485633,-0.016744253,0.022416573,-0.077176278,nan,nan,nan
181.152889,1523475.373,-4461278.744,4281719.2,-2.026872253,7.704961226,14.3132937,-0.190514815,0.485519667,-0.441914048,0.729853912,3.125416667,1.26875,9.1985633,-0.002563452,0.000599957,-0.078267109,nan,nan,nan
181.224755,1523475.228,-4461278.195,4281720.22,-2.017425667,7.509517936,14.04523508,-0.192084631,0.487560203,-0.440613942,0.728867544,2.825416667,2.08875,9.6885633,0.003981532,-0.028852474,-0.08044877,nan,nan,nan
181.301838,1523475.075,-4461277.626,4281721.284,-1.957354225,7.216301032,13.91787146,-0.19411928,0.490825468,-0.440465031,0.726222158,4.535416667,1.29875,11.2585633,-0.037470037,-0.072485705,-0.092447909,nan,nan,nan
181.373553,1523474.937,-4461277.116,4281722.268,-1.872171414,7.119232642,13.72910584,-0.195451357,0.493243067,-0.438399882,0.725476112,3.155416667,0.10875,9.2585633,0.02797981,-0.032124967,-0.090266247,nan,nan,nan
181.451416,1523473.688,-4461271.329,4281725.183,-2.7227481,7.344270496,8.903600247,0.239856077,0.228693662,-0.641509095,0.69183405,2.940416667,1.09375,9.7765633,-0.034197545,0.010417434,-0.077176278,42.4391,-71.145544,0.3
182.136644,1523473.477,-4461270.759,4281725.875,-2.654443769,7.107026286,8.418591623,0.237282854,0.230148897,-0.641849422,0.691923155,3.685416667,0.36875,9.7385633,-0.028743391,0.01914408,-0.068449632,nan,nan,nan
182.212828,1523472.484,-4461268.101,4281729.023,-2.363042125,6.016533746,5.949653625,0.227518228,0.241075243,-0.638966495,0.69414696,3.655416667,0.70875,9.5485633,-0.007581274,-0.007908523,-0.080012438,nan,nan,nan
182.284205,1523472.297,-4461267.624,4281729.495,-2.246109679,5.736772097,5.472566983,0.225075058,0.241904834,-0.639097305,0.694534308,3.525416667,0.25875,10.4885633,-0.015653422,0.027870726,-0.057541324,nan,nan,nan
182.358073,1523472.125,-4461267.186,4281729.913,-2.120216476,5.459664203,5.040978453,0.222835413,0.243185939,-0.639442886,0.694491017,3.445416667,-0.09125,10.7085633,-0.028743391,0.015871588,-0.059722985,nan,nan,nan
182.429368,1523471.972,-4461266.793,4281730.276,-1.990819972,5.227484339,4.619665477,0.220400517,0.243631967,-0.639101367,0.695425424,3.055416667,0.06875,10.4785633,0.003981532,0.038779034,-0.062995478,nan,nan,nan
182.50555,1523471.815,-4461266.379,4281730.641,-1.790368104,4.965588598,4.231795089,0.2173852,0.243815811,-0.639589215,0.695861453,2.555416667,-0.86125,11.0685633,-0.021107576,0.050778173,-0.055359662,nan,nan,nan
182.577951,1523471.687,-4461266.025,4281730.943,-1.644787715,4.726033709,3.793376165,0.215402514,0.24485687,-0.639262831,0.696412165,2.855416667,0.38875,10.7385633,-0.003654283,0.016962419,-0.062995478,nan,nan,nan
182.68937,1523472.358,-4461260.111,4281737.273,0.164077022,6.30669161,8.642497785,0.061460073,0.39256769,-0.447054128,0.801408682,3.329416667,0.43375,10.2975633,0.024707317,-0.016853336,-0.070631293,42.43925,-71.145515,0.4
182.764349,1523472.371,-4461259.624,4281737.941,0.321652678,6.254374099,8.487494903,0.059017619,0.392574566,-0.445671102,0.802358648,3.035416667,-0.17125,9.3685633,0.01488984,0.035506542,-0.06626797,nan,nan,nan
182.836124,1523472.396,-4461259.139,4281738.6,0.48608079,6.196089581,8.172983996,0.056417422,0.392416991,-0.445198074,0.802885206,1.805416667,1.43875,8.8785633,-0.010199268,0.037688204,-0.057541324,nan,nan,nan
182.909392,1523472.435,-4461258.642,4281739.255,0.768217521,6.080356191,7.939892198,0.054294071,0.393735871,-0.444471243,0.802788598,1.785416667,0.61875,10.6385633,-0.009108437,-0.004854197,-0.064086308,nan,nan,nan
182.980791,1523472.491,-4461258.199,4281739.833,0.901143967,6.032390014,7.838691826,0.052053107,0.394751329,-0.445071857,0.802105295,3.485416667,-0.55125,9.4085633,-0.047287514,-0.001581705,-0.054268831,nan,nan,nan
183.057697,1523472.556,-4461257.764,4281740.399,1.110242028,5.932504609,7.680064991,0.049985752,0.395543683,-0.444609226,0.802103021,2.595416667,0.18875,10.3885633,-0.01347176,0.007144942,-0.060813816,nan,nan,nan
183.129368,1523472.64,-4461257.313,4281740.983,1.255829824,5.84073334,7.475616487,0.04787017,0.396681957,-0.444102753,0.801950508,2.895416667,0.71875,9.4585633,-0.014562591,-0.001581705,-0.062995478,nan,nan,nan
183.212934,1523472.731,-4461256.888,4281741.527,1.426648636,5.773610757,7.282088833,0.045767872,0.397541086,-0.443533037,0.801963112,2.495416667,0.40875,9.5685633,-0.011290099,0.006054111,-0.062995478,nan,nan,nan
183.281746,1523472.842,-4461256.441,4281742.091,1.720836602,5.540654798,7.11719747,0.043292877,0.398437178,-0.44316562,0.80185895,2.705416667,0.86875,12.1185633,-0.020016745,0.008235772,-0.065177139,nan,nan,nan
183.358665,1523472.963,-4461256.051,4281742.591,1.957907081,5.39275887,6.926661998,0.040775703,0.398867712,-0.442865843,0.801942477,2.255416667,0.86875,11.0485633,-0.021107576,0.022416573,-0.06626797,nan,nan,nan
183.430339,1523473.107,-4461255.653,4281743.102,2.225263146,5.307320022,6.801411395,0.038427124,0.399613104,-0.442386936,0.801951696,2.275416667,-0.53125,10.8785633,-0.015653422,0.011508265,-0.065177139,nan,nan,nan
183.509042,1523473.265,-4461255.276,4281743.585,2.407342407,5.231814243,6.660755336,0.036232611,0.40006461,-0.441716402,0.802198308,2.775416667,-0.07125,10.0185633,-0.006926775,0.01914408,-0.062995478,nan,nan,nan
183.581149,1523473.435,-4461254.907,4281744.055,2.562612564,5.170130495,6.501075141,0.034064407,0.40105584,-0.441396176,0.801974592,2.755416667,0.13875,9.5685633,-0.021107576,0.001690788,-0.065177139,nan,nan,nan
183.688448,1523473.615,-4461254.545,4281744.511,2.719059023,5.083484739,6.317143316,0.031917112,0.402018235,-0.440754939,0.801933738,2.665416667,0.60875,9.7285633,-0.011290099,0.003872449,-0.068449632,nan,nan,nan
183.7598,1523472.23,-4461249.233,4281748.714,2.938496683,10.73945243,13.97266947,0.526372994,0.034988878,-0.089222557,0.844835242,2.535416667,0.68875,9.6385633,-0.020016745,0.000599957,-0.06626797,42.43939,-71.145475,0.2
183.832088,1523472.457,-4461248.403,4281749.795,2.838734415,10.99063687,14.1793951,0.524126624,0.035359445,-0.089310384,0.846206031,2.435416667,0.72875,9.6885633,-0.005835945,-0.000490874,-0.068449632,nan,nan,nan
183.910587,1523472.694,-4461247.484,4281750.979,2.696525425,11.22174441,14.3830176,0.521901414,0.035659366,-0.090686653,0.847421533,3.055416667,0.62875,9.4485633,-0.030925053,0.016962419,-0.059722985,nan,nan,nan
183.982276,1523472.894,-4461246.655,4281752.043,2.565689312,11.51277424,14.56627927,0.519615229,0.03554273,-0.089886898,0.848915234,2.025416667,0.03875,9.3485633,0.021434825,-0.001581705,-0.073903786,nan,nan,nan
184.061106,1523473.078,-4461245.826,4281753.091,2.442469709,11.75570941,14.7502755,0.517465029,0.035873039,-0.090161334,0.850184688,2.495416667,0.34875,9.4985633,-0.010199268,0.002781618,-0.069540462,nan,nan,nan
184.133164,1523473.256,-4461244.97,4281754.165,2.306566308,11.97884625,14.9904351,0.515278346,0.037245695,-0.089993653,0.851470568,2.815416667,0.21875,10.2385633,-0.014562591,-0.027761643,-0.072812955,nan,nan,nan
184.216494,1523473.423,-4461244.107,4281755.245,2.212340388,12.21436137,15.19651281,0.513251378,0.038685421,-0.090687073,0.852556342,2.405416667,0.69875,9.8685633,-0.036379207,-0.017944166,-0.06626797,nan,nan,nan
184.389831,1523473.591,-4461243.177,4281756.402,2.110516626,12.45865875,15.40570878,0.511037095,0.040007711,-0.090336007,0.853861744,2.485416667,0.70875,9.7585633,-0.009108437,-0.027761643,-0.070631293,nan,nan,nan
184.462432,1523474.38,-4461238.516,4281762.165,1.518113414,13.68131706,16.42261374,0.496598785,0.04757613,-0.090842541,0.861901266,2.567416667,0.48075,9.6785633,-0.022198406,-0.024489151,-0.091357078,nan,nan,nan
184.53447,1523474.499,-4461237.444,4281763.452,1.317072459,13.79927918,16.65213484,0.482658396,0.04964227,-0.089534597,0.869804619,4.655416667,0.47875,9.8885633,0.003981532,-0.020125828,-0.413152159,nan,nan,nan
184.613002,1523473.403,-4461226.848,4281770.666,-5.432916205,29.93530397,25.65841522,0.451376153,-0.10764638,0.649789258,0.602034672,2.375416667,0.35875,10.8885633,-0.020016745,0.024598234,-0.061904647,42.43966,-71.145373,0.2
184.69471,1523472.819,-4461223.63,4281773.424,-6.605866297,31.21618666,25.28022721,0.448320504,-0.110479659,0.650049703,0.603521627,2.835416667,0.53875,10.0285633,0.01488984,-0.010308351,-0.08044877,nan,nan,nan
184.770857,1523470.344,-4461211.937,4281782.894,-10.64879799,35.65128265,23.90574701,0.444865972,-0.116228441,0.643076004,0.612403846,2.758416667,0.47475,9.8655633,-0.037470037,0.018053249,-0.056450493,nan,nan,nan
184.843113,1523469.585,-4461209.394,4281784.599,-11.46203651,36.43861456,23.63635063,0.444570238,-0.116868426,0.641440642,0.61420923,3.545416667,-0.12125,9.7585633,-0.051650838,0.020234911,-0.044451354,nan,nan,nan
184.916438,1523468.712,-4461206.621,4281786.398,-12.32522745,37.32004094,23.33044451,0.444425526,-0.118636887,0.640167586,0.615302124,3.015416667,-0.22125,10.0585633,-0.017835083,0.037688204,-0.048814678,nan,nan,nan
184.987501,1523467.82,-4461203.92,4281788.086,-13.09083041,38.15673609,23.09827523,0.44410117,-0.120573489,0.639290154,0.616071655,2.905416667,0.79875,9.6285633,-0.003654283,0.035506542,-0.05208717,nan,nan,nan
185.064044,1523474.057,-4461215.395,4281782.388,-11.01628198,15.25840488,15.01189447,0.702345454,-0.382409746,0.388218711,0.457995505,2.953416667,0.38075,9.9615633,0.00070904,-0.008126689,-0.078267109,42.439783,-71.145315,-0.2
185.136232,1523473.1,-4461214.069,4281783.693,-11.91089523,15.46034287,14.86508428,0.701455179,-0.383459472,0.386401125,0.460014821,2.995416667,0.33875,9.9485633,-0.012380929,0.014780757,-0.067358801,nan,nan,nan
185.220488,1523472.189,-4461212.887,4281784.83,-12.64246414,15.66264216,14.70912571,0.699288114,-0.385617162,0.384816017,0.462830607,2.815416667,0.37875,9.0985633,0.013799009,0.00496328,-0.115355355,nan,nan,nan
185.292895,1523471.281,-4461211.762,4281785.886,-13.31950005,15.83464108,14.64434582,0.695837368,-0.388971191,0.381004768,0.468345104,3.285416667,1.40875,9.4885633,-0.005835945,0.021325742,-0.228801757,nan,nan,nan
185.365206,1523470.312,-4461210.61,4281786.951,-14.0781797,16.00455695,14.509095,0.693884856,-0.390538856,0.380763217,0.470130388,2.875416667,0.22875,10.0085633,0.02907064,-0.014671674,-0.078267109,nan,nan,nan
185.437263,1523469.304,-4461209.464,4281787.99,-14.83131625,16.18615399,14.4310951,0.692169835,-0.392693017,0.379978046,0.471497401,2.795416667,0.97875,10.3585633,0.035615625,0.010417434,-0.08044877,nan,nan,nan
185.515398,1523468.157,-4461208.213,4281789.106,-15.68233408,16.37647135,14.27913619,0.689973197,-0.394030581,0.379768503,0.473764471,2.585416667,0.03875,10.4585633,0.021434825,-0.024489151,-0.082630432,nan,nan,nan
185.587801,1523467.032,-4461207.037,4281790.13,-16.40063145,16.53227373,14.11052991,0.68871427,-0.394968606,0.378943034,0.475473062,3.085416667,0.00875,9.4585633,0.002890702,-0.003763366,-0.068449632,nan,nan,nan
185.68644,1523465.731,-4461205.726,4281791.25,-17.22382545,16.7015552,13.9926612,0.687892486,-0.395156752,0.377670716,0.477514293,3.155416667,0.66875,10.1385633,-0.023289237,-0.003763366,-0.059722985,nan,nan,nan
185.764243,1523459.318,-4461199.508,4281796.459,-21.04156362,17.56970358,13.31960873,0.686437297,-0.395268979,0.369266668,0.486012757,2.951416667,0.46275,9.8645633,-0.035288376,0.010417434,-0.053178001,nan,nan,nan
185.836187,1523475.122,-4461205.81,4281790.516,1.359704277,-16.12239434,3.468381714,0.19455261,-0.463653311,-0.697504479,-0.510551067,2.825416667,0.61875,10.0285633,0.002672535,0.00070904,-0.091247995,42.439899,-71.145251,-0.7
185.915153,1523475.227,-4461207.052,4281790.783,1.688088925,-15.15394857,2.692739579,0.193549021,-0.46215726,-0.698030316,-0.511569275,0.875416667,0.15875,9.3485633,-0.006926775,0.052959834,-0.014998923,nan,nan,nan
185.986681,1523475.356,-4461208.209,4281790.989,1.983755967,-14.03778688,1.9584071,0.194447048,-0.461499832,-0.698823132,-0.510739152,2.855416667,0.47875,9.9885633,0.011617348,-0.013580843,-0.03790637,nan,nan,nan
186.368953,1523476.086,-4461213.381,4281791.71,5.764395733,-8.504743586,-1.821176789,0.201265224,-0.450683509,-0.706253917,-0.507525457,-0.114583333,2.79875,15.1985633,0.004308782,0.003981532,-0.081975933,nan,nan,nan
186.440809,1523476.52,-4461214.02,4281791.574,6.054099923,-7.513610585,-2.586920932,0.200716899,-0.448714636,-0.707107976,-0.508297366,1.535416667,-0.03125,9.4285633,-0.006926775,0.050778173,-0.035724708,nan,nan,nan
186.519237,1523478.234,-4461216.147,4281790.841,6.845628597,-3.531896497,-5.175726057,0.206089639,-0.445129244,-0.713425072,-0.500411516,2.965416667,0.51875,8.7085633,0.039978948,-0.029943305,-0.068449632,nan,nan,nan
186.591029,1523478.757,-4461216.417,4281790.446,7.164434612,-2.361154556,-5.911689567,0.205638389,-0.443306889,-0.714432501,-0.500777453,3.295416667,0.95875,10.5585633,0.001799871,0.042051527,-0.03790637,nan,nan,nan
186.696694,1523478.756,-4461196.968,4281799.148,11.65317952,10.66293048,6.432124913,0.874474668,0.433325799,-0.208809688,-0.062620458,2.395416667,-0.49125,8.6985633,0.046523933,0.026779896,-0.054268831,42.440015,-71.145185,-1.1
186.769603,1523479.626,-4461196.172,4281799.628,11.81778616,11.85532519,6.278821106,0.874713165,0.432997504,-0.209050499,-0.060728336,1.545416667,0.97875,11.0285633,0.021434825,0.025689065,-0.040088031,nan,nan,nan
187.143252,1523480.455,-4461195.34,4281800.069,11.99028705,12.90313943,6.139837843,0.87457771,0.433482055,-0.209000204,-0.059380566,1.795416667,0.21875,10.3185633,-0.005835945,0.016962419,-0.036815539,nan,nan,nan
187.222172,1523481.363,-4461194.363,4281800.534,12.17454579,14.09310465,5.948895173,0.87456245,0.433844822,-0.20879862,-0.05763964,1.925416667,1.10875,10.6385633,0.00070904,0.015871588,-0.044451354,nan,nan,nan
187.29327,1523482.219,-4461193.372,4281800.952,12.37899021,15.09600983,5.761742853,0.874464431,0.434013186,-0.209483712,-0.055327104,2.515416667,0.19875,9.5885633,0.009435686,0.04641485,-0.049905508,nan,nan,nan
187.377271,1523483.125,-4461192.268,4281801.373,12.55034148,16.21057734,5.595486487,0.874813173,0.433623627,-0.209354244,-0.053322259,1.725416667,0.67875,10.3785633,0.024707317,0.018053249,-0.047723847,nan,nan,nan
187.757474,1523484.019,-4461191.113,4281801.772,12.70714535,17.23437633,5.423439571,0.875173752,0.433329278,-0.208861574,-0.051705755,1.715416667,0.30875,9.5785633,0.020343994,0.00496328,-0.044451354,nan,nan,nan
187.831113,1523484.912,-4461189.902,4281802.153,12.89317089,18.26607003,5.211527546,0.875478935,0.433243162,-0.208129017,-0.05019273,2.335416667,0.84875,9.6485633,0.013799009,-0.001581705,-0.046633016,nan,nan,nan
187.90286,1523489.717,-4461183.094,4281804.095,14.02330233,23.60631843,4.361590064,0.876632241,0.432378834,-0.207182595,-0.040494829,2.415416667,-0.00125,9.8885633,0.017289668,0.016526086,-0.047069348,nan,nan,nan
187.975677,1523490.834,-4461181.213,4281804.443,14.23672841,24.81136011,4.179611855,0.876636274,0.432683539,-0.207004101,-0.03798816,1.945416667,0.68875,10.3985633,0.006163194,0.023507403,-0.058632155,nan,nan,nan
188.047239,1523482.982,-4461185.085,4281807.328,-3.726837614,21.84016147,19.73018753,-0.16380944,-0.165840061,0.91180468,0.338046991,2.165416667,1.45875,10.7785633,0.031252302,0.012599096,-0.069540462,42.440123,-71.14511,-1.7
188.124805,1523482.698,-4461183.421,4281808.832,-3.943173232,22.90502637,18.64660992,-0.164727792,-0.16825219,0.911634414,0.336865924,2.205416667,1.03875,10.1385633,0.020343994,0.003872449,-0.071722124,nan,nan,nan
188.196225,1523482.41,-4461181.751,4281810.19,-4.07784824,23.94015684,17.61690313,-0.165773342,-0.170507126,0.911531835,0.335494014,1.235416667,0.86875,10.4185633,0.02797981,0.000599957,-0.072812955,nan,nan,nan
188.274763,1523482.119,-4461180.041,4281811.449,-4.276413642,25.03315173,16.58366055,-0.16651625,-0.172646964,0.911535349,0.33401897,1.975416667,1.88875,11.2085633,0.031252302,0.008235772,-0.068449632,nan,nan,nan
188.346861,1523480.937,-4461173.123,4281816.032,-5.110999871,28.70968731,12.68863528,-0.165141736,-0.182261054,0.91031137,0.332929909,2.425416667,0.79875,9.5685633,-0.009108437,0.03223405,-0.062995478,nan,nan,nan
188.53128,1523480.574,-4461171.083,4281816.933,-5.326304034,29.66673638,11.70657568,-0.165394818,-0.18457494,0.910193358,0.331850414,2.185416667,1.08875,9.5085633,0.017071502,0.020234911,-0.067358801,nan,nan,nan
188.814451,1523478.53,-4461159.698,4281821.426,-6.37622362,34.94301376,6.205713176,-0.167138095,-0.197813544,0.906009462,0.334785774,2.060416667,0.89875,10.1135633,-0.030925053,0.008235772,-0.067358801,nan,nan,nan
188.886337,1523485.707,-4461175.156,4281816.336,-5.375192246,5.673282642,-11.29677524,0.397365443,-0.459012953,0.359037075,-0.70887248,1.515416667,0.58875,9.5785633,-0.02765256,0.007144942,-0.062995478,42.440233,-71.14503,-2.0
189.259937,1523485.282,-4461174.707,4281815.441,-5.457169194,5.607577442,-11.42964214,0.399397026,-0.460255849,0.358845187,-0.70701959,2.485416667,1.39875,8.7685633,-0.024380068,-0.02339832,-0.068449632,nan,nan,nan
189.33587,1523484.892,-4461174.306,4281814.625,-5.476648074,5.531975437,-11.54409499,0.40071692,-0.462279541,0.357640334,-0.705561456,2.315416667,0.79875,9.2685633,0.01488984,-0.032124967,-0.078267109,nan,nan,nan
189.408383,1523484.472,-4461173.883,4281813.741,-5.422195465,5.436826646,-11.65586336,0.402341915,-0.463834201,0.355174821,-0.704861451,2.175416667,-0.00125,9.8285633,0.035615625,0.003872449,-0.081539601,nan,nan,nan
189.480795,1523484.08,-4461173.49,4281812.898,-5.426238538,5.286767825,-11.77195958,0.404324379,-0.464546798,0.352983747,-0.704358249,2.025416667,1.09875,10.2285633,0.020343994,0.023507403,-0.079357939,nan,nan,nan
189.557836,1523483.663,-4461173.083,4281811.993,-5.453990275,5.179156845,-11.91206262,0.406261728,-0.465243086,0.350717786,-0.703915702,2.035416667,1.13875,9.4585633,0.021434825,0.023507403,-0.073903786,nan,nan,nan
189.631897,1523483.276,-4461172.716,4281811.148,-5.367854092,5.045361994,-12.08530592,0.407552208,-0.466776024,0.349265307,-0.702876296,0.935416667,0.02875,10.2685633,0.019253163,-0.014671674,-0.071722124,nan,nan,nan
189.712689,1523482.873,-4461172.336,4281810.239,-5.346179871,4.959604398,-12.20428773,0.408988669,-0.467716801,0.348234339,-0.701927424,2.155416667,0.46875,9.5485633,0.002890702,-0.004854197,-0.058632155,nan,nan,nan
189.783655,1523482.446,-4461171.94,4281809.265,-5.361829724,4.865693174,-12.33579905,0.410762704,-0.467761897,0.34744997,-0.701249832,2.195416667,0.93875,9.3785633,-0.012380929,0.014780757,-0.047723847,nan,nan,nan
189.853534,1523482.037,-4461171.569,4281808.323,-5.367791013,4.778344772,-12.49222568,0.412356189,-0.46764338,0.3467442,-0.700742822,1.785416667,0.85875,9.2685633,-0.012380929,0.018053249,-0.042269693,nan,nan,nan
189.930654,1523481.65,-4461171.225,4281807.424,-5.375910717,4.640878911,-12.61898249,0.413648836,-0.468083436,0.346038055,-0.700035858,1.855416667,1.17875,10.0185633,-0.004745114,0.002781618,-0.046633016,nan,nan,nan
190.002351,1523481.23,-4461170.862,4281806.438,-5.406264198,4.529260216,-12.73965366,0.41529763,-0.468478243,0.345160157,-0.69922849,2.235416667,1.20875,9.5685633,-0.006926775,0.007144942,-0.05208717,nan,nan,nan
190.079927,1523489.668,-4461165.202,4281823.715,7.245328408,19.5301768,16.90245861,0.173161135,0.362984405,-0.830045472,-0.386370364,2.185416667,0.95875,9.5085633,-0.01347176,0.021325742,-0.034633877,42.440341,-71.14494,-1.7
190.15052,1523490.241,-4461163.659,4281825.051,6.906898356,20.58685199,15.87205382,0.174200215,0.364271616,-0.829405218,-0.386066652,1.905416667,0.97875,9.1085633,0.003981532,-0.00921752,-0.044451354,nan,nan,nan
190.229607,1523490.735,-4461162.184,4281826.188,6.644117899,21.60092534,14.89063388,0.174500521,0.365383166,-0.828786333,-0.386209691,1.505416667,0.53875,10.1485633,-0.012380929,0.000599957,-0.034633877,nan,nan,nan
190.300959,1523493.221,-4461154.103,4281831.759,5.173346053,26.6124809,9.956103715,0.177136104,0.373688383,-0.825378087,-0.384357656,1.745416667,0.65875,9.2285633,-0.001472622,0.005945028,-0.05066909,nan,nan,nan
190.380214,1523493.629,-4461152.006,4281832.543,4.89567727,27.66414901,8.891515255,0.177442219,0.377111124,-0.82434496,-0.383088562,1.655416667,0.19875,9.4085633,0.003981532,0.034415711,-0.090266247,nan,nan,nan
190.451458,1523494.002,-4461149.898,4281833.221,4.561073432,28.89590792,7.815990846,0.175991849,0.378688923,-0.824267315,-0.382367577,1.175416667,1.75875,11.9485633,-0.006926775,0.054050665,-0.02372557,nan,nan,nan
190.530034,1523494.324,-4461147.853,4281833.774,4.324273328,30.01420862,6.84831032,0.175822811,0.379451466,-0.8242553,-0.381714717,0.365416667,1.02875,11.3985633,0.009435686,0.01914408,-0.019362246,nan,nan,nan
190.60796,1523500.212,-4461143.005,4281843.015,-2.302592876,4.342515681,-25.95045682,-0.551792486,-0.025157192,0.053830578,0.83186203,1.641416667,0.93675,9.9605633,-0.005181446,0.01630792,-0.04357869,42.440565,-71.144738,-1.8
190.701644,1523500.013,-4461142.628,4281840.764,-2.620440549,5.091430063,-25.61826237,-0.552805313,-0.02518908,0.054324594,0.831156204,1.095416667,1.17875,10.5585633,0.010526517,0.006054111,-0.028088893,nan,nan,nan
190.775678,1523499.813,-4461142.241,4281838.816,-2.826911056,5.800264148,-25.39342721,-0.55388141,-0.024050277,0.052929646,0.830563315,1.435416667,-0.00125,9.7885633,-0.012380929,-0.046305767,-0.031361385,nan,nan,nan
190.847304,1523499.615,-4461141.834,4281837.035,-3.057365789,6.445207077,-25.09289625,-0.554820304,-0.023273393,0.052057191,0.830013752,1.445416667,0.64875,11.0785633,-0.006926775,-0.033215797,-0.030270554,nan,nan,nan
190.91718,1523498.464,-4461139.408,4281827.588,-4.333852511,9.956077606,-23.69925822,-0.560825837,-0.024821455,0.05196393,0.825928584,1.685416667,0.65875,10.5085633,-0.003108868,0.005399612,-0.038888117,nan,nan,nan
190.99189,1523498.162,-4461138.714,4281825.935,-4.536446541,10.60294442,-23.54906948,-0.562071337,-0.023812092,0.052277568,0.825091421,1.585416667,0.14875,8.9785633,0.025798148,-0.020125828,-0.041178862,nan,nan,nan
191.064042,1523497.843,-4461137.969,4281824.282,-4.772780655,11.29087161,-23.43363702,-0.563246243,-0.023124326,0.052174255,0.824315949,2.295416667,0.37875,8.5185633,0.010526517,-0.019034997,-0.0389972,nan,nan,nan
191.136389,1523497.509,-4461137.179,4281822.641,-4.973549841,11.92586187,-23.28443757,-0.564228454,-0.022933844,0.052282227,0.823642434,1.405416667,0.21875,8.9285633,0.007254025,-0.003763366,-0.033543047,nan,nan,nan
191.208506,1523497.161,-4461136.343,4281821.009,-5.283383345,12.57636646,-23.06446696,-0.565176005,-0.022230002,0.052459707,0.823000541,2.065416667,1.65875,9.9185633,0.017071502,-0.014671674,-0.031361385,nan,nan,nan
191.285745,1523506.067,-4461132.275,4281852.28,3.984341406,-17.62736667,18.93643831,0.541439485,0.110589281,-0.180400111,-0.813676284,2.145416667,0.48875,9.3685633,0.00070904,0.013689926,-0.031361385,42.44068,-71.144628,-1.9
191.356796,1523506.404,-4461133.768,4281853.884,3.744595694,-16.5898093,19.15617104,0.542937214,0.110924069,-0.179909482,-0.812740802,1.275416667,0.16875,10.6085633,-0.005835945,-0.003763366,-0.043360524,nan,nan,nan
191.43569,1523506.683,-4461135.0,4281855.307,3.475887588,-15.68003785,19.40255276,0.544045825,0.111333886,-0.180127476,-0.811894697,1.315416667,1.01875,11.2585633,0.006163194,0.009326603,-0.03790637,nan,nan,nan
191.507631,1523506.933,-4461136.129,4281856.704,3.151160482,-14.79533013,19.62465213,0.545199274,0.1118268,-0.180282912,-0.811018243,1.765416667,1.79875,11.0485633,0.003981532,0.010417434,-0.041178862,nan,nan,nan
191.585774,1523507.16,-4461137.198,4281858.122,2.924118063,-13.8899395,19.69883331,0.546378871,0.112081477,-0.179822547,-0.810291135,2.215416667,0.10875,9.2985633,-0.006926775,-0.004854197,-0.040088031,nan,nan,nan
191.69404,1523507.665,-4461139.597,4281861.523,2.316084186,-11.73623698,20.04719633,0.548924832,0.113161351,-0.179638007,-0.808459167,1.935416667,0.64875,10.1685633,-0.001472622,0.006054111,-0.03790637,nan,nan,nan
191.766218,1523508.073,-4461141.664,4281865.054,1.830157873,-9.552726147,20.2779413,0.553201005,0.11101711,-0.177880664,-0.806227213,1.845416667,-0.14125,9.5085633,0.007254025,-0.03648829,-0.050996339,nan,nan,nan
191.838493,1523508.202,-4461142.337,4281866.483,1.572298193,-8.700558274,20.38006587,0.554488008,0.1113345,-0.177891163,-0.805296475,1.915416667,0.84875,9.4785633,0.003981532,0.003872449,-0.045542185,nan,nan,nan
191.910489,1523508.325,-4461143.019,4281868.08,1.297228902,-7.704932956,20.5212077,0.555952001,0.112175192,-0.17824925,-0.804090358,2.255416667,0.57875,10.0585633,0.005072363,0.01914408,-0.049905508,nan,nan,nan
191.986484,1523511.968,-4461121.815,4281862.673,4.563299224,31.90406984,1.247218453,0.165655171,0.511065643,-0.843114061,-0.022998988,2.325416667,0.72875,10.7985633,0.002999785,0.000272708,-0.040960696,42.440798,-71.144516,-2.0
192.058687,1523512.37,-4461119.008,4281862.782,4.485868529,32.58130023,-0.234687924,0.164801717,0.513073275,-0.842049082,-0.023442548,1.755416667,0.47875,10.2085633,-0.02656173,0.008235772,-0.048814678,nan,nan,nan
192.433467,1523512.689,-4461116.687,4281862.766,4.44581526,33.09793186,-1.470267347,0.165104086,0.514624793,-0.841053749,-0.0230338,2.145416667,0.03875,10.6685633,0.006163194,-0.004854197,-0.053178001,nan,nan,nan
192.502477,1523513.027,-4461114.174,4281862.654,4.391465368,33.64619648,-2.740703889,0.165431326,0.516396418,-0.839904529,-0.022969524,2.055416667,0.08875,10.0385633,-0.002563452,-0.010308351,-0.055359662,nan,nan,nan
192.572938,1523513.336,-4461111.802,4281862.461,4.329054104,34.20721791,-4.005976191,0.165721989,0.51798312,-0.83886225,-0.023234363,1.865416667,0.74875,11.2985633,-0.010199268,-0.014671674,-0.05208717,nan,nan,nan
192.647258,1523516.235,-4461088.897,4281859.778,3.695304492,39.17957726,-15.30079962,0.16636075,0.531337953,-0.83038407,-0.021595792,2.031416667,0.41275,10.1525633,-0.00212712,-0.002345286,-0.047505681,nan,nan,nan
192.734032,1523518.129,-4461108.326,4281872.128,9.170158394,29.13004471,-3.575517778,0.17469849,-0.970009765,-0.152268441,-0.073319954,1.135416667,0.62875,12.2385633,-0.002563452,-0.017944166,-0.048814678,42.440916,-71.1444,-2.1
192.80364,1523519.79,-4461103.049,4281871.48,9.415098041,29.81907383,-6.123891417,0.175371091,-0.969326679,-0.15576205,-0.073409493,1.835416667,1.01875,8.5985633,-0.005835945,0.007144942,-0.0389972,nan,nan,nan
192.873889,1523520.471,-4461100.893,4281871.038,9.578999325,30.10074535,-7.283211623,0.17560465,-0.969097109,-0.156946797,-0.073358733,2.535416667,0.47875,10.5785633,-0.004745114,0.003872449,-0.033543047,nan,nan,nan
192.948606,1523522.176,-4461095.535,4281869.741,9.909366356,30.81838762,-10.00354584,0.175604265,-0.968703372,-0.15971593,-0.072579214,2.255416667,0.51875,9.7585633,0.002890702,-0.002672535,-0.032452216,nan,nan,nan
193.020159,1523522.875,-4461093.362,4281869.036,10.02436427,31.07218083,-11.08609224,0.175751524,-0.968487862,-0.160963491,-0.072342366,1.895416667,0.82875,9.9185633,-0.001472622,-0.000490874,-0.036815539,nan,nan,nan
193.094086,1523523.599,-4461091.116,4281868.234,10.1154754,31.36919247,-12.27543672,0.175382312,-0.968369679,-0.162351573,-0.07171595,1.625416667,-0.12125,10.6985633,0.01488984,-0.008126689,-0.040088031,nan,nan,nan
193.164892,1523527.358,-4461079.46,4281863.673,10.72090174,32.7761347,-18.19904527,0.179246647,-0.966558879,-0.168069884,-0.073396777,1.910416667,0.47075,10.4005633,-0.021107576,0.011508265,-0.031361385,nan,nan,nan
193.241634,1523524.655,-4461097.646,4281880.284,33.20571223,-19.73166522,12.72536382,-0.079387813,0.969842892,0.230436619,0.001141957,1.910416667,0.47075,10.4005633,0.025798148,0.00496328,-0.040088031,42.441038,-71.144278,-2.2
193.313805,1523527.196,-4461099.156,4281881.258,33.27434465,-19.30802619,11.33743301,-0.078151482,0.969517453,0.232220277,0.001413748,2.705416667,0.81875,11.6985633,0.02907064,0.018053249,-0.046633016,nan,nan,nan
193.392072,1523533.133,-4461102.601,4281883.28,33.38305215,-18.05432408,8.402984466,-0.077383118,0.968817191,0.235382403,-0.00047755,3.045416667,-0.33125,9.7985633,0.012708179,-0.015762505,-0.03790637,nan,nan,nan
193.463858,1523535.478,-4461103.869,4281883.871,33.38368798,-17.61132302,7.298725088,-0.077823791,0.968511758,0.236490319,-0.000872488,2.185416667,0.17875,9.1585633,-0.010199268,-0.011399182,-0.033543047,nan,nan,nan
193.54275,1523537.923,-4461105.159,4281884.405,33.42088644,-17.14457556,6.147802009,-0.078507013,0.968245817,0.237351402,-0.000999822,2.665416667,0.34875,9.1585633,-0.017835083,-0.005945028,-0.0248164,nan,nan,nan
193.614681,1523540.657,-4461106.561,4281884.908,33.47356769,-16.69115788,4.764836478,-0.076497146,0.967964871,0.239146339,-0.001106057,2.455416667,0.94875,10.4685633,0.047614764,0.012599096,-0.044451354,nan,nan,nan
193.703392,1523543.187,-4461107.823,4281885.268,33.52325668,-16.2644032,3.437346986,-0.07600609,0.967603065,0.240762462,-0.000905751,2.525416667,0.81875,11.0985633,0.010526517,0.011508265,-0.043360524,nan,nan,nan
193.780502,1523545.555,-4461108.972,4281885.511,33.52759688,-15.80283642,2.314489533,-0.074764033,0.967329658,0.242245963,-0.000752001,2.335416667,0.02875,9.2985633,0.032343133,0.015871588,-0.042269693,nan,nan,nan
193.853099,1523547.991,-4461110.12,4281885.679,33.5524303,-15.36461294,1.106686122,-0.074090469,0.967036417,0.243620644,-0.000390156,2.365416667,0.51875,10.1085633,0.01488984,0.016962419,-0.03790637,nan,nan,nan
194.226574,1523550.41,-4461111.227,4281885.759,33.56695293,-14.93324144,-0.052763226,-0.074059744,0.966779361,0.244648191,-0.000291934,2.185416667,0.58875,9.5785633,-0.000381791,0.00496328,-0.029179723,nan,nan,nan
194.302696,1523552.981,-4461112.371,4281885.755,33.58092522,-14.49217212,-1.323384025,-0.073735874,0.96644622,0.246056607,-0.00093366,2.075416667,0.70875,10.1085633,0.011617348,-0.011399182,-0.0389972,nan,nan,nan
194.37433,1523555.388,-4461113.41,4281885.66,33.60355786,-14.12913701,-2.543734653,-0.073061033,0.966205175,0.247202202,-0.000847094,1.885416667,1.32875,10.6385633,0.017071502,0.009326603,-0.032452216,nan,nan,nan
194.447924,1523557.803,-4461114.426,4281885.477,33.61656262,-13.73634337,-3.779511424,-0.072553495,0.965935064,0.248405343,-0.00047781,1.955416667,0.90875,10.7485633,0.010526517,0.015871588,-0.033543047,nan,nan,nan
194.518783,1523533.405,-4461086.774,4281888.854,-1.884061216,28.07106302,-13.84974061,0.089551101,-0.972839705,-0.212938527,-0.014855727,1.855416667,0.60875,10.9085633,0.019253163,0.022416573,-0.033543047,42.441161,-71.144145,-2.4
194.595952,1523533.261,-4461084.62,4281887.792,-1.834496232,28.44171593,-15.16381973,0.089626656,-0.972601333,-0.213973065,-0.015140601,1.965416667,1.12875,10.8785633,-0.003654283,0.009326603,-0.026998062,nan,nan,nan
194.696809,1523533.128,-4461082.554,4281886.69,-1.760902125,28.80996144,-16.38854333,0.088769101,-0.972398451,-0.215294131,-0.014482305,2.385416667,1.11875,10.5985633,0.026888979,-0.00921752,-0.03790637,nan,nan,nan
194.768396,1523533.002,-4461080.491,4281885.517,-1.715976059,29.2081855,-17.58264478,0.087948301,-0.972190398,-0.216569408,-0.014443638,2.245416667,0.57875,10.3085633,0.022525656,0.007144942,-0.035724708,nan,nan,nan
194.852224,1523532.87,-4461078.257,4281884.172,-1.642227437,29.62052291,-18.89087489,0.087267182,-0.971941896,-0.217887824,-0.015436515,2.475416667,0.81875,10.7785633,0.011617348,0.03223405,-0.032452216,nan,nan,nan
194.924964,1523532.735,-4461075.81,4281882.611,-1.598485793,30.13870066,-20.16271862,0.086625953,-0.971726737,-0.21905293,-0.016090586,2.415416667,0.16875,8.9285633,0.011617348,0.021325742,-0.026998062,nan,nan,nan
194.996112,1523532.619,-4461073.634,4281881.156,-1.568208513,30.55767805,-21.33680499,0.08688073,-0.971529836,-0.219701212,-0.017688841,2.105416667,0.39875,9.8585633,-0.016744253,0.043142357,-0.014998923,nan,nan,nan
195.066713,1523532.509,-4461071.493,4281879.661,-1.528342806,31.00620995,-22.47001027,0.086549531,-0.971386864,-0.220437662,-0.017999362,2.465416667,-0.06125,9.6885633,0.007254025,0.012599096,-0.020453077,nan,nan,nan
195.146037,1523532.393,-4461069.142,4281877.957,-1.520614448,31.52006504,-23.6339115,0.085855451,-0.971283944,-0.221149913,-0.018139947,2.195416667,-0.44125,8.7885633,0.017071502,0.009326603,-0.018271416,nan,nan,nan
195.218168,1523532.287,-4461066.933,4281876.3,-1.488819623,31.97383552,-24.7282249,0.084897479,-0.971203415,-0.221915854,-0.017598247,2.375416667,-0.05125,9.1185633,0.030161471,-0.007035859,-0.022634739,nan,nan,nan
195.296594,1523532.178,-4461064.59,4281874.488,-1.487857477,32.45161799,-25.90705067,0.083919162,-0.971085917,-0.222838556,-0.017108321,2.005416667,-0.34125,9.5485633,0.02907064,-0.004854197,-0.025907231,nan,nan,nan
195.367988,1523532.071,-4461062.263,4281872.631,-1.470496586,32.85273136,-27.11205392,0.083081785,-0.970985213,-0.223586442,-0.017153319,1.815416667,0.47875,10.4185633,0.022525656,0.008235772,-0.020453077,nan,nan,nan
196.053407,1523531.968,-4461059.954,4281870.725,-1.477067334,33.26973062,-28.3210868,0.082164967,-0.970895025,-0.224280049,-0.017613318,1.655416667,-0.01125,10.7285633,0.022525656,0.020234911,-0.018271416,nan,nan,nan
196.124861,1523531.864,-4461057.608,4281868.728,-1.45115717,33.63822241,-29.53486994,0.081207919,-0.970787541,-0.225014917,-0.018577178,1.745416667,0.82875,10.8885633,0.020343994,0.034415711,-0.018271416,nan,nan,nan
196.200909,1523548.789,-4461060.953,4281906.493,29.59769845,11.80620582,-3.636800143,0.281646826,0.908343857,-0.265703108,-0.158077077,1.625416667,0.40875,10.3985633,0.015544339,0.016962419,-0.021871157,42.441408,-71.143868,-2.9
196.574176,1523551.366,-4461059.926,4281906.176,29.38480745,12.79672286,-5.035576616,0.281813803,0.908496002,-0.26490356,-0.158246957,2.255416667,0.92875,10.1985633,-0.001472622,-0.00921752,-0.017180585,nan,nan,nan
196.652185,1523553.498,-4461058.997,4281905.811,29.19078108,13.68720548,-6.242830932,0.281188787,0.908818697,-0.264926607,-0.15746535,1.975416667,0.67875,11.2085633,-0.012380929,0.025689065,-0.005181446,nan,nan,nan
196.734285,1523555.54,-4461058.04,4281905.374,29.02365873,14.5075281,-7.378726614,0.281274068,0.908997333,-0.264719719,-0.156627639,2.225416667,0.71875,10.5385633,0.006163194,0.020234911,-0.013908092,nan,nan,nan
196.811124,1523557.572,-4461057.024,4281904.858,28.89854376,15.32614129,-8.419425635,0.281074557,0.909273356,-0.264329336,-0.156041853,2.115416667,-0.18125,9.3385633,-0.004745114,0.014780757,-0.016089754,nan,nan,nan
196.882734,1523559.766,-4461055.86,4281904.219,28.78291192,16.20011738,-9.545154385,0.279598943,0.909901517,-0.263910542,-0.155739803,2.375416667,-0.22125,9.1785633,-0.039651699,0.016962419,-0.0106356,nan,nan,nan
196.955443,1523561.853,-4461054.686,4281903.527,28.57464231,17.01280982,-10.65703351,0.28057541,0.909845948,-0.262546868,-0.156610771,1.605416667,0.94875,9.5885633,0.012708179,-0.039760782,-0.031361385,nan,nan,nan
197.027652,1523572.54,-4461048.323,4281899.541,27.66632549,21.44071654,-16.55988102,0.282688271,0.910506432,-0.258534647,-0.155644517,1.939416667,0.45775,10.2485633,0.007254025,-0.003763366,-0.02372557,nan,nan,nan
197.109719,1523574.467,-4461046.83,4281898.387,27.60987427,22.24970724,-17.57115585,0.28356877,0.910507723,-0.257665622,-0.155476255,2.815416667,-0.79125,8.8885633,0.020343994,-0.00921752,-0.028088893,nan,nan,nan
197.182359,1523576.411,-4461045.263,4281897.15,27.42221969,23.06374757,-18.68386534,0.284651023,0.910549772,-0.256569559,-0.155064406,1.875416667,0.85875,10.1285633,0.025798148,-0.005945028,-0.036815539,nan,nan,nan
197.254572,1523555.667,-4461047.655,4281918.81,-21.55049695,46.81035437,6.163417741,-0.38302009,-0.509004653,-0.69746145,0.328264224,2.061416667,0.41775,10.0355633,-0.003654283,0.000599957,-0.021543908,42.441528,-71.143725,-3.1
197.327763,1523553.985,-4461044.001,4281919.291,-22.50720706,47.48095147,5.253308363,-0.383538672,-0.508347792,-0.697772495,0.328015481,2.535416667,0.18875,10.9785633,0.006163194,0.003872449,-0.022634739,nan,nan,nan
197.405864,1523552.353,-4461040.558,4281919.672,-23.34813239,48.10075895,4.393348837,-0.384374058,-0.507430577,-0.698008187,0.327956345,2.325416667,0.65875,10.5085633,0.018162333,0.006054111,-0.029179723,nan,nan,nan
197.477281,1523550.541,-4461036.827,4281920.013,-24.19398176,48.77973786,3.451308924,-0.384997691,-0.507041549,-0.698176831,0.327467185,2.325416667,1.28875,10.0285633,0.001799871,0.012599096,-0.019362246,nan,nan,nan
197.556301,1523548.84,-4461033.397,4281920.256,-24.96515211,49.35981476,2.659645633,-0.385756363,-0.506010085,-0.698336007,0.327830205,2.025416667,0.37875,9.6885633,0.02797981,-0.001581705,-0.025907231,nan,nan,nan
197.628119,1523547.021,-4461029.8,4281920.45,-25.80429502,49.9825221,1.804423252,-0.386217704,-0.50460292,-0.698783647,0.328501437,2.315416667,0.63875,10.3785633,0.030161471,-0.017944166,-0.030270554,nan,nan,nan
197.715999,1523545.177,-4461026.227,4281920.579,-26.61433399,50.57600928,0.981737199,-0.386679262,-0.504026884,-0.699044839,0.328287013,2.105416667,0.48875,10.1185633,0.006163194,0.003872449,-0.021543908,nan,nan,nan
198.089457,1523543.288,-4461022.638,4281920.648,-27.4704822,51.17958287,0.174502514,-0.387695426,-0.503192177,-0.699011088,0.328440844,2.465416667,0.10875,10.6785633,0.026888979,0.010417434,-0.02372557,nan,nan,nan
198.469239,1523541.362,-4461019.05,4281920.661,-28.26621521,51.76185006,-0.58680917,-0.388732058,-0.502573134,-0.698973311,0.328243724,2.235416667,-0.04125,9.8185633,0.018162333,0.018053249,-0.02372557,nan,nan,nan
198.540821,1523539.383,-4461015.427,4281920.619,-29.0790805,52.3157907,-1.368264394,-0.389262585,-0.502030466,-0.699153317,0.328062024,1.835416667,0.00875,10.2285633,0.008344855,0.006054111,-0.020453077,nan,nan,nan
198.617367,1523536.919,-4461010.994,4281920.504,-30.06769635,52.99935465,-2.307529949,-0.388798102,-0.501326449,-0.699988387,0.327908654,2.005416667,-0.03125,10.2285633,-0.008017606,-0.019034997,-0.019362246,nan,nan,nan
198.69939,1523534.767,-4461007.2,4281920.338,-30.88584099,53.5832988,-3.109645938,-0.389659839,-0.500281888,-0.700118924,0.328202277,2.035416667,0.19875,10.0685633,0.02797981,0.001690788,-0.026998062,nan,nan,nan
198.772485,1523532.528,-4461003.315,4281920.113,-31.73296965,54.21460064,-3.933419858,-0.389778316,-0.500037711,-0.70049563,0.327629402,2.575416667,0.39875,10.3285633,-0.010199268,0.003872449,-0.017180585,nan,nan,nan
198.844028,1523530.235,-4460999.398,4281919.829,-32.54504214,54.87537817,-4.694072379,-0.389934767,-0.498606079,-0.701077686,0.328379252,3.085416667,0.00875,9.5085633,0.026888979,-0.026670813,-0.029179723,nan,nan,nan
198.918117,1523561.924,-4461032.405,4281930.179,-16.59322737,8.370785189,14.74592197,0.355437122,0.697853533,0.590202892,-0.195768855,2.755416667,0.83875,9.8285633,-0.014562591,-0.011399182,-0.016089754,42.44165,-71.143581,-3.1
198.989951,1523560.674,-4461031.774,4281931.29,-17.23248853,9.271799703,13.81278201,0.356474841,0.697000473,0.590492374,-0.196047914,2.685416667,-0.27125,9.4885633,0.030161471,0.003872449,-0.021543908,nan,nan,nan
199.062705,1523559.368,-4461031.071,4281932.337,-17.76542208,10.1453685,12.89684556,0.357856977,0.696685593,0.590249101,-0.19538057,2.635416667,0.54875,8.1585633,0.019253163,0.034415711,-0.013908092,nan,nan,nan
199.134473,1523558.079,-4461030.335,4281933.273,-18.36317753,11.04268831,11.99920422,0.358419026,0.695690556,0.590823754,-0.196157447,3.105416667,-0.09125,9.4185633,0.030161471,-0.016853336,-0.022634739,nan,nan,nan
199.21071,1523554.806,-4461028.367,4281935.411,-19.84505013,13.24716089,9.653890602,0.361384832,0.692804009,0.591519526,-0.198817152,2.985416667,0.45875,9.9985633,0.050887256,-0.010308351,-0.020453077,nan,nan,nan
199.589609,1523553.414,-4461027.438,4281936.088,-20.43491408,14.06662636,8.759564914,0.36165544,0.692645581,0.591571882,-0.198721291,2.375416667,0.21875,9.5885633,0.005072363,0.00496328,-0.006272277,nan,nan,nan
199.685688,1523551.808,-4461026.332,4281936.777,-21.06956422,14.91598161,7.807343719,0.361736564,0.691632148,0.592246041,-0.200090622,1.705416667,0.01875,8.7185633,0.02797981,-0.034306628,-0.014998923,nan,nan,nan
199.763905,1523544.046,-4461020.837,4281939.653,-24.0179217,19.41980245,3.357189958,0.364345539,0.688089463,0.594264669,-0.20158056,3.115416667,0.00875,9.0085633,0.019362246,-0.005072363,-0.018925914,nan,nan,nan
199.834821,1523569.189,-4461022.216,4281940.025,10.46937016,25.11316598,-10.69668774,-0.438287077,-0.217493783,-0.851733678,0.187485026,2.925416667,-0.07125,10.0285633,0.022525656,0.00496328,0.001363538,42.44177,-71.143441,-3.1
199.913591,1523569.968,-4461020.346,4281939.228,9.591937441,25.60435845,-11.43525229,-0.438621135,-0.217431138,-0.851443097,0.188095331,2.595416667,-0.47125,9.6585633,0.018162333,0.007144942,0.005726862,nan,nan,nan
199.985893,1523570.705,-4461018.378,4281938.349,8.665952085,26.06339603,-12.13621021,-0.439218161,-0.21709571,-0.8509608,0.189268533,2.925416667,-1.44125,9.5285633,0.035615625,0.010417434,0.005726862,nan,nan,nan
200.06413,1523571.329,-4461016.501,4281937.475,7.83922988,26.5347383,-12.86679638,-0.439815837,-0.217300071,-0.850424792,0.190053628,2.245416667,-0.30125,9.5385633,0.022525656,0.016962419,0.014453508,nan,nan,nan
200.136161,1523571.942,-4461014.427,4281936.47,6.884636399,27.00333257,-13.68722687,-0.440428334,-0.217689512,-0.849712021,0.191373039,2.085416667,-0.71125,10.4185633,0.031252302,0.015871588,0.024270985,nan,nan,nan
200.214834,1523574.514,-4461004.34,4281931.357,2.511304673,29.53253227,-17.39517728,-0.43862726,-0.22458597,-0.847137296,0.19881064,2.606416667,-0.23825,9.5905633,0.018162333,-0.003763366,0.053723416,nan,nan,nan
200.286997,1523574.731,-4461001.789,4281929.854,1.490188547,29.99609259,-18.24313536,-0.437069007,-0.225380435,-0.847160074,0.201231591,1.965416667,-1.46125,9.8185633,0.031252302,-0.039760782,0.047178431,nan,nan,nan
200.365333,1523574.838,-4460999.637,4281928.545,0.722782909,30.44775036,-18.98335574,-0.436665411,-0.22616396,-0.84664066,0.203402986,1.605416667,-0.18125,9.0185633,0.04216061,-0.012490012,0.050450924,nan,nan,nan
200.437136,1523574.89,-4460997.42,4281927.163,-0.128965097,30.91975121,-19.69180739,-0.436566067,-0.228103084,-0.845903345,0.204515484,2.615416667,-0.53125,9.5085633,0.006163194,0.010417434,0.063540893,nan,nan,nan
200.516175,1523574.881,-4460995.2,4281925.749,-0.990178976,31.37528877,-20.39205231,-0.436549377,-0.229551049,-0.84513951,0.206082912,2.665416667,-0.70125,9.7885633,0.023616486,0.007144942,0.058086739,nan,nan,nan
200.593516,1523577.62,-4461010.02,4281949.792,-7.905109628,-3.027319503,16.27001001,0.413164529,0.235960024,0.878728618,-0.03813077,2.615416667,-1.57125,8.5785633,0.02797981,0.040960696,0.071176709,42.441888,-71.143303,-3.2
200.689782,1523577.0,-4461010.258,4281951.067,-8.788530475,-2.353286931,15.40779482,0.41260321,0.237958884,0.878371777,-0.039964769,2.565416667,-0.72125,9.7485633,0.017071502,-0.017944166,0.066813385,nan,nan,nan
200.76676,1523576.36,-4461010.429,4281952.19,-9.64002148,-1.772786802,14.58354982,0.412328018,0.239695818,0.877929617,-0.042084538,2.295416667,-1.36125,10.1685633,0.030161471,-0.013580843,0.068995047,nan,nan,nan
200.838351,1523575.672,-4461010.556,4281953.23,-10.4774279,-1.257118201,13.77185972,0.413241198,0.241471895,0.876911315,-0.044154078,1.945416667,-2.00125,10.1685633,0.037797287,0.022416573,0.07335837,nan,nan,nan
200.916708,1523574.838,-4461010.656,4281954.327,-11.41893781,-0.631903362,12.86063605,0.414866075,0.24327663,0.875520384,-0.046547597,2.205416667,-1.45125,10.3585633,0.045433102,0.037688204,0.071176709,nan,nan,nan
201.290134,1523572.863,-4461010.765,4281956.551,-13.26542998,0.518003299,10.9637107,0.413632987,0.246479167,0.874843337,-0.052961375,1.325416667,-2.17125,9.0585633,0.046523933,-0.025579982,0.065722555,nan,nan,nan
201.369189,1523571.846,-4461010.725,4281957.392,-14.06196189,1.315360459,10.2091525,0.411323834,0.246264473,0.875686107,-0.057795813,3.755416667,0.93875,8.5385633,0.096702149,-0.09321149,0.04499677,nan,nan,nan
201.440527,1523570.689,-4461010.617,4281958.231,-15.02904465,1.952938563,9.262416147,0.410018833,0.248168345,0.875555699,-0.060821448,2.135416667,-1.34125,10.3485633,0.037797287,-0.041942444,0.07335837,nan,nan,nan
201.519124,1523569.546,-4461010.469,4281958.936,-15.91059246,2.574076942,8.414829491,0.411717205,0.250443468,0.873922597,-0.063453194,2.525416667,-1.01125,10.0185633,0.049796425,0.043142357,0.088630001,nan,nan,nan
201.596421,1523568.4,-4461010.283,4281959.542,-16.72558954,3.077050239,7.605576012,0.411849088,0.251817369,0.873248045,-0.06637917,1.695416667,-1.88125,9.7685633,0.057432241,-0.007035859,0.071176709,nan,nan,nan
201.69473,1523567.176,-4461010.058,4281960.099,-17.53217185,3.635954993,6.765950548,0.41106003,0.253641368,0.872897829,-0.068884602,1.695416667,-1.09125,9.7785633,0.034524794,-0.028852474,0.075540032,nan,nan,nan
201.769348,1523565.927,-4461009.799,4281960.581,-18.31657017,4.184489596,5.972676542,0.410439954,0.256269822,0.872320897,-0.070150379,1.965416667,-1.13125,9.5485633,-0.002563452,-0.012490012,0.084266678,nan,nan,nan
202.243731,1523584.807,-4460999.979,4281959.099,-2.177634794,20.92001979,-6.154070143,-0.230737839,0.254083873,0.561992245,0.752573021,2.325416667,-0.57125,9.7785633,0.038888117,-0.019034997,0.075540032,42.441998,-71.143165,-3.0
202.322371,1523583.989,-4460992.117,4281956.786,-1.262467719,26.81271169,-7.963131691,-0.219690659,0.26538541,0.564173676,0.75034303,2.165416667,-0.87125,9.9285633,0.044233188,-0.012490012,0.072376622,nan,nan,nan
202.39383,1523583.894,-4460990.1,4281956.187,-1.100560145,27.97955184,-8.337703158,-0.217540508,0.266862842,0.564740512,0.750019003,2.275416667,-0.87125,9.5885633,0.039978948,0.003872449,0.05917757,nan,nan,nan
202.472361,1523583.482,-4460979.643,4281953.071,-0.260743718,33.78349435,-10.25282504,-0.204017498,0.272912389,0.566642618,0.75020786,2.186416667,-1.00025,9.6355633,0.033433963,0.01914408,0.070085878,nan,nan,nan
202.544564,1523583.46,-4460976.738,4281952.189,0.041521141,35.15955086,-10.60859232,-0.201150964,0.274054393,0.565539584,0.751397005,1.585416667,-0.11125,11.0285633,-0.011290099,0.020234911,0.077721693,nan,nan,nan
202.628701,1523583.463,-4460974.212,4281951.427,0.224178735,36.28521181,-11.04322632,-0.19918607,0.275824878,0.565939596,0.750971318,1.755416667,-1.88125,9.7585633,0.039978948,-0.007035859,0.063540893,nan,nan,nan
202.711318,1523593.358,-4460986.994,4281968.504,21.33342199,15.49862096,19.20138479,0.089358935,0.380248492,-0.91615828,-0.089889221,2.175416667,-1.08125,9.4385633,0.033433963,-0.008126689,0.061359232,42.44212,-71.143048,-3.1
202.782648,1523595.005,-4460985.797,4281969.987,21.20243911,16.02559857,17.86638548,0.090018092,0.377945886,-0.917076997,-0.089573619,2.045416667,-1.50125,10.3885633,0.021434825,-0.015762505,0.061359232,nan,nan,nan
202.855254,1523596.547,-4460984.632,4281971.286,21.10870391,16.51911039,16.60820314,0.090506539,0.375738137,-0.917994311,-0.088971147,1.795416667,-1.81125,10.4285633,0.02797981,-0.00921752,0.062450062,nan,nan,nan
202.931862,1523598.066,-4460983.443,4281972.481,20.9475638,17.01669302,15.39685295,0.090676686,0.373612053,-0.918927322,-0.088115545,2.265416667,-0.99125,9.9185633,0.031252302,0.001690788,0.061359232,nan,nan,nan
203.003454,1523599.68,-4460982.132,4281973.667,20.79084825,17.57692446,14.09341106,0.090699908,0.37123511,-0.919971297,-0.087240084,1.895416667,-0.88125,10.0985633,0.02907064,0.00496328,0.064631724,nan,nan,nan
203.076115,1523601.167,-4460980.875,4281974.675,20.64360712,18.0902473,12.88098742,0.089829959,0.368989144,-0.921025179,-0.086546002,1.975416667,-0.92125,10.1085633,0.017071502,0.026779896,0.068995047,nan,nan,nan
203.14841,1523602.79,-4460979.453,4281975.688,20.41002845,18.7068175,11.49468794,0.090162771,0.366742648,-0.922083586,-0.084453339,2.315416667,0.12875,10.8385633,0.059613902,0.009326603,0.056995908,nan,nan,nan
203.225331,1523604.887,-4460977.531,4281976.869,20.16815764,19.42768138,9.785653043,0.088700573,0.36343657,-0.923603113,-0.083686075,2.185416667,-0.76125,9.7485633,0.011617348,0.028961557,0.071176709,nan,nan,nan
203.296646,1523606.326,-4460976.144,4281977.567,20.01348387,19.92698625,8.53306268,0.08861823,0.361058916,-0.924670634,-0.082264741,2.235416667,-0.99125,10.6585633,0.044342271,0.013689926,0.068995047,nan,nan,nan
203.375268,1523609.867,-4460972.618,4281979.077,19.80050032,21.13875497,5.470510024,0.089114532,0.354866566,-0.927073207,-0.081630812,1.565416667,-1.71125,10.4985633,0.017071502,-0.005945028,0.07335837,nan,nan,nan
203.447182,1523611.3,-4460971.089,4281979.473,19.6265656,21.64541811,4.289188739,0.088731099,0.352151487,-0.928199297,-0.081007332,2.115416667,-0.69125,9.4585633,0.021434825,0.012599096,0.079903355,nan,nan,nan
203.526098,1523612.844,-4460969.386,4281979.81,19.47048786,22.21719395,2.84796384,0.088323501,0.349313741,-0.929369721,-0.080316815,2.065416667,-0.95125,11.4885633,0.021434825,0.012599096,0.076630862,nan,nan,nan
203.597663,1523598.852,-4460976.168,4281980.369,-4.15550957,2.503950556,1.240277869,-0.740583149,-0.229787158,-0.341328055,0.531252878,3.085416667,-0.18125,11.3985633,0.057432241,-0.016853336,0.060268401,42.442245,-71.14295,-3.1
203.70032,1523598.534,-4460975.976,4281980.464,-4.894111118,3.084020723,1.30616759,-0.739337226,-0.230704389,-0.339887454,0.533509579,1.155416667,-0.42125,10.3985633,0.01488984,0.015871588,0.077721693,nan,nan,nan
203.776781,1523598.181,-4460975.754,4281980.558,-5.489276245,3.631111832,1.412504145,-0.738242654,-0.2313021,-0.338343788,0.535743038,1.605416667,-1.70125,9.7885633,0.024707317,0.015871588,0.077721693,nan,nan,nan
203.848575,1523597.75,-4460975.469,4281980.669,-6.19001302,4.280508085,1.53122688,-0.73740103,-0.230258086,-0.336540051,0.538480946,2.095416667,-1.09125,10.2885633,0.062886395,-0.003763366,0.064631724,nan,nan,nan
203.926566,1523597.303,-4460975.16,4281980.78,-6.764669927,4.860641925,1.717882915,-0.736432165,-0.229791882,-0.335138425,0.540874841,2.315416667,-2.50125,10.2885633,0.046523933,-0.002672535,0.067904216,nan,nan,nan
204.099323,1523596.771,-4460974.778,4281980.915,-7.497239064,5.508492154,1.812522821,-0.735201001,-0.228606322,-0.33428561,0.543573149,1.915416667,-0.56125,10.3885633,0.049796425,-0.026670813,0.062450062,nan,nan,nan
204.178157,1523596.233,-4460974.382,4281981.045,-8.061701833,6.151347247,1.851576554,-0.734314391,-0.227498806,-0.333350153,0.545806141,2.715416667,-0.80125,8.8385633,0.051978087,-0.020125828,0.054814247,nan,nan,nan
204.249864,1523595.539,-4460973.853,4281981.204,-8.864931755,6.848238763,1.937388483,-0.733448397,-0.227471589,-0.331401264,0.548163596,1.755416667,-0.39125,10.2585633,0.038888117,0.013689926,0.061359232,nan,nan,nan
204.328272,1523594.903,-4460973.361,4281981.343,-9.497438272,7.496428959,2.068925202,-0.73237948,-0.229358614,-0.329633263,0.549869835,2.925416667,-1.01125,10.4185633,-0.002563452,0.044233188,0.079903355,nan,nan,nan
204.400138,1523594.212,-4460972.816,4281981.494,-10.13240427,8.109147429,2.192551614,-0.731320024,-0.229919253,-0.328073022,0.551974865,2.285416667,-1.17125,10.2885633,0.024707317,0.016962419,0.07335837,nan,nan,nan
204.478446,1523593.481,-4460972.231,4281981.652,-10.75025525,8.688113001,2.310977893,-0.730122336,-0.231576244,-0.326649405,0.553709296,1.905416667,-1.34125,10.1485633,-0.003654283,0.03223405,0.077721693,nan,nan,nan
204.651664,1523592.654,-4460971.562,4281981.83,-11.40187571,9.304253286,2.495024809,-0.728686598,-0.231430407,-0.325982065,0.55604991,2.035416667,-1.95125,10.5885633,0.023616486,-0.015762505,0.067904216,nan,nan,nan
204.745356,1523591.836,-4460970.895,4281982.009,-12.02934332,9.791138571,2.631822806,-0.727675449,-0.23284844,-0.323993323,0.557941191,0.715416667,-1.75125,10.4985633,0.012708179,0.040960696,0.079903355,nan,nan,nan
205.115887,1523590.892,-4460970.127,4281982.215,-12.76943515,10.52920211,2.714902052,-0.726394187,-0.233505586,-0.322888384,0.559972962,2.895416667,-0.00125,10.3585633,0.012708179,0.007144942,0.067904216,nan,nan,nan
205.188918,1523601.572,-4460965.466,4281990.578,6.401876922,18.90200826,15.99795683,-0.429236693,0.06570538,0.746030939,0.504852951,2.195416667,-0.94125,9.6085633,0.022525656,-0.012490012,0.062450062,42.442375,-71.142868,-3.2
205.260545,1523602.078,-4460963.974,4281991.842,6.694266346,20.04713561,15.19232698,-0.428106363,0.068278736,0.74656752,0.504678011,2.365416667,-1.24125,10.0385633,0.039978948,-0.005945028,0.060268401,nan,nan,nan
205.330665,1523602.564,-4460962.518,4281992.945,6.955645671,21.09497518,14.46217588,-0.427036868,0.070390171,0.74695238,0.504724559,2.305416667,-1.10125,9.8985633,0.031252302,-0.002672535,0.058086739,nan,nan,nan
205.503499,1523603.102,-4460960.885,4281994.065,7.268832693,22.20142683,13.6961179,-0.425825355,0.072809949,0.747849015,0.50407671,1.865416667,-1.17125,10.1085633,0.053068918,0.000599957,0.053723416,nan,nan,nan
205.893876,1523603.625,-4460959.286,4281995.051,7.533263159,23.27902754,13.02786199,-0.424931212,0.074964027,0.748628174,0.503358437,2.105416667,-0.19125,10.2285633,0.053068918,-0.003763366,0.047178431,nan,nan,nan
205.965535,1523604.216,-4460957.463,4281996.071,7.821852238,24.42728382,12.25197531,-0.424136473,0.077071314,0.74914337,0.50294381,2.285416667,-0.82125,10.1085633,0.038888117,-0.007035859,0.04499677,nan,nan,nan
206.041696,1523605.063,-4460954.816,4281997.399,8.245123283,25.99493667,11.19440824,-0.422093458,0.07994481,0.750365513,0.502391817,1.965416667,-0.84125,10.1185633,0.044342271,0.010417434,0.052632585,nan,nan,nan
206.11349,1523605.658,-4460952.941,4281998.206,8.424359829,26.98030686,10.48420051,-0.421059751,0.081673836,0.750711405,0.502464384,2.455416667,-0.83125,8.5685633,0.025798148,0.001690788,0.050450924,nan,nan,nan
206.184395,1523606.266,-4460950.993,4281998.963,8.679351811,28.05658408,9.812458543,-0.420111488,0.083563645,0.751044338,0.502449857,2.165416667,-0.09125,10.0885633,0.02907064,-0.002672535,0.051541754,nan,nan,nan
206.256513,1523606.892,-4460948.97,4281999.671,8.930018671,29.10550113,9.083483385,-0.418740083,0.085082898,0.75142004,0.502777851,2.455416667,-0.90125,9.9285633,0.019253163,0.012599096,0.053723416,nan,nan,nan
206.334457,1523607.579,-4460946.729,4282000.37,9.190559367,30.29371895,8.393765064,-0.417494482,0.086642614,0.751610559,0.503262341,2.355416667,0.50875,10.2985633,0.012708179,0.007144942,0.051541754,nan,nan,nan
206.717639,1523608.238,-4460944.558,4282000.972,9.473526761,31.35144929,7.71593313,-0.416681546,0.088483027,0.751851471,0.503256008,1.895416667,-0.39125,10.3185633,0.026888979,-0.005945028,0.049360093,nan,nan,nan
206.794508,1523608.983,-4460942.092,4282001.579,9.723877874,32.50195954,6.9653643,-0.415796806,0.090492021,0.752271184,0.503003257,2.355416667,-0.29125,9.6885633,0.033433963,-0.004854197,0.046087601,nan,nan,nan
206.866171,1523604.494,-4460953.858,4282001.907,10.95517294,18.85219631,11.86407159,-0.920131118,-0.095575828,0.204969623,0.319705242,2.275416667,-0.95125,9.2485633,0.036706456,-0.001581705,0.040633447,42.442505,-71.142799,-3.0
206.944512,1523605.343,-4460952.397,4282002.826,11.12323193,19.6731483,12.01102487,-0.920018491,-0.094305434,0.204375605,0.320785089,1.535416667,-0.29125,10.2185633,0.019253163,-0.026670813,0.0319068,nan,nan,nan
207.01715,1523609.496,-4460945.052,4282007.311,12.10476305,23.65586862,12.501974,-0.918547104,-0.090854174,0.204356332,0.325968137,2.174416667,-0.49025,9.8585633,0.010526517,-0.007035859,0.0319068,nan,nan,nan
207.089104,1523610.544,-4460943.003,4282008.394,12.28614635,24.67348578,12.65726316,-0.918365007,-0.089627491,0.204446628,0.326763223,2.215416667,0.67875,10.4385633,0.022525656,-0.008126689,0.024270985,nan,nan,nan
207.16124,1523611.423,-4460941.238,4282009.299,12.50129454,25.46635881,12.75437217,-0.917990145,-0.089521586,0.204765162,0.327644943,2.685416667,-0.38125,10.1385633,-0.000381791,0.007144942,0.027543477,nan,nan,nan
207.238427,1523612.337,-4460939.376,4282010.232,12.69475435,26.30844439,12.76969337,-0.917729353,-0.088928379,0.205219173,0.328252449,3.165416667,0.20875,9.1185633,0.01488984,0.006054111,0.022089323,nan,nan,nan
207.309891,1523613.245,-4460937.494,4282011.145,12.96885551,27.04524597,12.76278269,-0.917101155,-0.090076846,0.205534709,0.329495245,3.435416667,-1.47125,8.8585633,-0.035288376,0.01914408,0.0319068,nan,nan,nan
207.388425,1523614.239,-4460935.421,4282012.123,13.19089765,27.99146993,12.80729336,-0.916971943,-0.089393021,0.206414244,0.329491282,3.635416667,0.64875,9.7885633,0.023616486,0.015871588,0.006817692,nan,nan,nan
207.461202,1523615.192,-4460933.4,4282013.048,13.4455698,28.76147779,12.80185754,-0.916609466,-0.089937299,0.206901918,0.330045401,3.395416667,-1.01125,8.8985633,-0.01347176,0.018053249,0.015544339,nan,nan,nan
207.539512,1523616.239,-4460931.16,4282014.045,13.67001565,29.64423251,12.86291722,-0.916499305,-0.089013222,0.20770401,0.330098038,2.935416667,-0.12125,9.6685633,0.02797981,0.011508265,0.008999354,nan,nan,nan
207.610833,1523606.425,-4460942.849,4282013.108,1.59458072,11.23392911,20.84272945,-0.644619774,0.385561397,-0.653490866,0.093581221,3.105416667,0.25875,9.9685633,0.003981532,0.003872449,0.008999354,42.442636,-71.142746,-2.7
207.699669,1523606.549,-4460941.974,4282014.732,0.768404576,11.25090904,20.42835499,-0.644685108,0.385232517,-0.653597933,0.093737723,2.665416667,1.10875,10.2785633,-0.003654283,0.001690788,0.008999354,nan,nan,nan
207.772043,1523606.605,-4460941.157,4282016.215,0.104296317,11.24544215,20.08428756,-0.645467466,0.384269785,-0.653380683,0.093819866,3.495416667,0.20875,9.2485633,-0.023289237,0.021325742,0.014453508,nan,nan,nan
208.151431,1523606.644,-4460936.945,4282023.738,-3.411216216,11.1405277,18.12340096,-0.640328411,0.392239276,-0.653662427,0.094092024,3.073416667,0.01275,9.6405633,0.038888117,-0.02230749,-0.02372557,nan,nan,nan
208.223164,1523606.375,-4460936.065,4282025.169,-4.172145674,11.16316631,17.65572532,-0.63986162,0.392974554,-0.65381251,0.093152077,2.275416667,0.45875,9.5585633,0.00070904,-0.021216659,-0.0248164,nan,nan,nan
208.299444,1523606.056,-4460935.211,4282026.52,-4.951215945,11.14100533,17.29005357,-0.638938438,0.393995997,-0.654287395,0.091830451,3.485416667,0.85875,10.1485633,0.002890702,-0.039760782,-0.032452216,nan,nan,nan
208.371323,1523605.699,-4460934.408,4282027.765,-5.701986686,11.15199119,16.94396815,-0.638127357,0.394813515,-0.654792104,0.090349684,3.285416667,1.30875,10.0485633,-0.004745114,-0.041942444,-0.033543047,nan,nan,nan
208.445562,1523604.676,-4460932.407,4282030.807,-7.304322933,11.32425352,15.72714571,-0.637708916,0.391715906,-0.658149596,0.082006691,1.385416667,0.14875,8.7285633,-0.084375761,-0.060486567,-0.021543908,nan,nan,nan
208.516017,1523605.147,-4460933.351,4282023.828,-6.565611912,8.108366895,0.720873876,0.191621358,0.180008504,-0.819412134,0.509354443,0.945416667,0.41875,10.7685633,-0.071285792,0.00496328,0.012271846,42.442766,-71.142705,-2.8
208.592385,1523604.631,-4460932.713,4282023.885,-6.606368988,7.865133364,-0.25712825,0.193260061,0.183377725,-0.820027747,0.506534949,4.065416667,0.93875,10.8885633,-0.075649115,-0.087757336,-0.032452216,nan,nan,nan
208.680956,1523604.156,-4460932.148,4282023.867,-6.579580287,7.759845822,-0.96502772,0.192805336,0.184271068,-0.821768652,0.503553929,2.225416667,-0.86125,9.0085633,-0.099647392,-0.008126689,-0.001908954,nan,nan,nan
208.752308,1523603.642,-4460931.542,4282023.791,-6.589153733,7.630136981,-1.900100096,0.191759541,0.185811885,-0.823186081,0.501065763,3.035416667,0.96875,9.7985633,-0.08328493,-0.002672535,-0.026998062,nan,nan,nan
208.825076,1523603.167,-4460930.992,4282023.654,-6.611248968,7.467213944,-2.745477629,0.191220229,0.187429228,-0.822562114,0.501693809,3.455416667,0.43875,10.0485633,0.011617348,-0.010308351,-0.050996339,nan,nan,nan
208.901097,1523602.65,-4460930.408,4282023.44,-6.616925785,7.283428885,-3.679996651,0.189792935,0.188958583,-0.821745059,0.502999359,3.335416667,0.59875,10.3285633,0.023616486,0.012599096,-0.060813816,nan,nan,nan
208.973053,1523603.578,-4460924.192,4282033.318,-4.591156914,4.194206078,1.316834427,-0.11397456,0.443482017,-0.656701834,0.599229674,2.749416667,0.52775,9.9325633,-0.038015453,-0.025470899,-0.027325311,42.442893,-71.142678,-2.6
209.046531,1523603.204,-4460923.85,4282033.425,-4.706301895,3.972011593,0.666061535,-0.114810423,0.44740379,-0.65449701,0.598566688,2.805416667,1.32875,9.1985633,0.023616486,-0.045214936,-0.101174555,nan,nan,nan
209.118046,1523602.865,-4460923.565,4282033.473,-4.781071505,3.684470408,-0.025461551,-0.115610918,0.449754702,-0.652352504,0.598991682,2.055416667,2.37875,10.8885633,0.041069779,-0.012490012,-0.081539601,nan,nan,nan
209.199992,1523602.518,-4460923.297,4282033.471,-4.887249659,3.488535761,-0.713347358,-0.114593937,0.454824899,-0.649652911,0.598292267,1.815416667,2.45875,9.5185633,0.060704733,-0.101938137,-0.109901201,nan,nan,nan
209.688988,1523602.166,-4460923.046,4282033.42,-4.94260254,3.24654733,-1.163458661,-0.115485956,0.458392648,-0.650176471,0.594819075,4.005416667,-0.06125,9.5285633,-0.071285792,-0.088848167,-0.083721263,nan,nan,nan
209.760429,1523601.748,-4460922.771,4282033.322,-5.213901747,2.744108023,-1.632034369,-0.116847129,0.467713938,-0.648400742,0.589208705,7.095416667,1.55875,10.6185633,-0.050560007,-0.166297153,-0.197167664,nan,nan,nan
209.830312,1523601.374,-4460922.574,4282033.204,-5.305101575,2.426649326,-2.177325315,-0.120642485,0.469199629,-0.647447009,0.588310692,4.025416667,1.32875,10.5385633,-0.045105853,0.035506542,-0.104447047,nan,nan,nan
209.904922,1523599.391,-4460921.667,4282032.391,-5.662621532,1.092992585,-5.036356741,-0.128566635,0.493302479,-0.633790173,0.581750206,3.385416667,1.01375,9.9475633,0.015980671,-0.056123244,-0.146989448,nan,nan,nan
209.976821,1523598.982,-4460921.588,4282032.027,-5.769240684,0.886575935,-5.60661589,-0.130987242,0.497716961,-0.631256895,0.580202466,3.255416667,1.70875,9.1185633,-0.003654283,-0.040851613,-0.156806925,nan,nan,nan
210.050767,1523598.541,-4460921.52,4282031.598,-5.88440244,0.642568263,-6.268937598,-0.133877504,0.502187516,-0.628344484,0.578850345,2.875416667,2.26875,9.5985633,-0.000381791,-0.027761643,-0.160079417,nan,nan,nan
210.121556,1523603.288,-4460915.619,4282042.949,2.302022113,2.473044523,11.4604673,-0.409238696,0.137576382,0.74698266,-0.505582175,3.775416667,2.37875,8.9685633,-0.012380929,0.002781618,-0.167715233,42.443013,-71.142653,-2.8
210.203619,1523603.468,-4460915.426,4282043.844,2.389937811,2.364569686,10.54148696,-0.404925054,0.133525692,0.748839235,-0.507391753,3.415416667,1.74875,9.5785633,-0.016744253,0.043142357,-0.158988587,nan,nan,nan
210.573872,1523603.641,-4460915.255,4282044.604,2.506913144,2.227059947,9.683566045,-0.400814882,0.129763286,0.750818755,-0.508704351,3.235416667,1.91875,10.2885633,-0.02765256,0.049687342,-0.157897756,nan,nan,nan
210.6801,1523603.838,-4460915.08,4282045.368,2.692543863,2.096359961,8.753119949,-0.39716401,0.12476924,0.752294535,-0.510633252,2.585416667,2.42875,10.4185633,-0.021107576,0.013689926,-0.166624402,nan,nan,nan
210.751782,1523604.064,-4460914.904,4282046.1,2.789360512,2.002044695,7.764833861,-0.39288315,0.119270597,0.754585289,-0.511877326,3.225416667,1.98875,9.4085633,-0.045105853,0.027870726,-0.169896894,nan,nan,nan
210.823446,1523604.272,-4460914.755,4282046.68,2.865954259,1.945682629,6.869868471,-0.388476349,0.113359002,0.756947616,-0.5130947,3.305416667,2.20875,9.0685633,-0.056014161,0.028961557,-0.200440156,nan,nan,nan
210.89981,1523604.476,-4460914.616,4282047.17,2.932980971,1.887268961,6.003743769,-0.383322084,0.10721754,0.759502514,-0.514513858,3.415416667,2.22875,9.1185633,-0.057104991,0.044233188,-0.227710926,nan,nan,nan
211.273496,1523604.691,-4460914.478,4282047.61,3.045518606,1.777856692,5.08763092,-0.378017459,0.100185699,0.761832518,-0.516407631,3.375416667,2.55875,10.0785633,-0.051650838,0.030052388,-0.24734588,nan,nan,nan
211.35199,1523604.909,-4460914.35,4282047.974,3.10194132,1.685552225,4.198470388,-0.372749692,0.092225737,0.764411422,-0.517906612,3.695416667,2.17875,9.5385633,-0.074558284,0.020234911,-0.268071665,nan,nan,nan
211.423871,1523605.148,-4460914.221,4282048.297,3.268508508,1.696437788,3.027673204,-0.369841037,0.082186057,0.765229561,-0.520467846,4.205416667,5.61875,9.5085633,-0.050560007,-0.075758198,-0.265890003,nan,nan,nan
211.502233,1523605.382,-4460914.099,4282048.514,3.281672009,1.670548083,2.12624454,-0.364980488,0.076206146,0.767079106,-0.522083817,3.945416667,2.45875,8.4885633,-0.042924191,0.03223405,-0.21898428,nan,nan,nan
211.573975,1523605.639,-4460913.968,4282048.681,3.463041025,1.638324809,1.108872345,-0.363812006,0.060008945,0.766233093,-0.526238158,2.625416667,3.83875,9.6485633,-0.056014161,-0.208839553,-0.369518928,nan,nan,nan
211.686785,1523605.889,-4460913.85,4282048.761,3.600719335,1.588032495,0.217292347,-0.357099603,0.059350599,0.769425354,-0.526252796,2.675416667,3.09875,9.5585633,-0.041833361,0.165315405,-0.117537017,nan,nan,nan
211.761379,1523606.174,-4460913.725,4282048.778,3.694154481,1.462528815,-0.800906501,-0.351649812,0.052595033,0.771254885,-0.527960298,3.635416667,2.74875,10.0985633,-0.044015022,0.030052388,-0.222256772,nan,nan,nan
211.832772,1523602.971,-4460906.075,4282051.863,1.296145327,10.62269353,-5.023656234,0.011345823,-0.694033132,0.71665631,0.067771811,3.685416667,2.85875,9.3185633,-0.063649976,0.035506542,-0.227710926,42.443125,-71.14262,-3.4
211.905942,1523603.073,-4460905.24,4282051.468,0.798532705,10.96916258,-6.261041589,0.012701185,-0.700714962,0.710045758,0.068353813,3.285416667,2.86875,9.2785633,-0.044015022,0.027870726,-0.236437572,nan,nan,nan
211.977237,1523603.13,-4460904.452,4282051.018,0.319672196,11.24135156,-7.421032698,0.014023127,-0.706679647,0.703976213,0.06946021,3.865416667,3.17875,9.6885633,-0.057104991,0.018053249,-0.234255911,nan,nan,nan
212.053666,1523603.155,-4460903.573,4282050.437,-0.208018138,11.61367991,-8.689037222,0.015577991,-0.713157261,0.697278158,0.070478494,2.835416667,3.26875,9.8585633,-0.056014161,0.023507403,-0.235346741,nan,nan,nan
212.432689,1523603.138,-4460902.615,4282049.721,-0.746921889,11.98167012,-10.023365,0.017781657,-0.719965589,0.69012963,0.071094709,3.055416667,3.07875,9.7985633,-0.058195822,0.040960696,-0.235346741,nan,nan,nan
212.50609,1523603.081,-4460901.702,4282048.957,-1.176600795,12.2839989,-11.22245735,0.019517225,-0.726222081,0.683454387,0.07148894,3.455416667,2.27875,9.2285633,-0.049469176,0.038779034,-0.236437572,nan,nan,nan
212.577457,1523602.997,-4460900.819,4282048.151,-1.631376843,12.57680262,-12.367388,0.02104827,-0.732062361,0.677074759,0.072190317,3.255416667,2.95875,9.5485633,-0.053832499,0.030052388,-0.237528403,nan,nan,nan
212.690135,1523602.877,-4460899.9,4282047.246,-2.09710981,12.87062432,-13.53882996,0.022932744,-0.737791683,0.670591923,0.073783427,3.245416667,3.00875,9.6485633,-0.076739946,0.018053249,-0.23316508,nan,nan,nan
212.865596,1523602.727,-4460898.98,4282046.279,-2.553567123,13.1424977,-14.70528314,0.024413283,-0.743451729,0.66412581,0.074969512,3.415416667,3.00875,9.9585633,-0.062559145,0.01914408,-0.237528403,nan,nan,nan
212.936136,1523602.532,-4460897.972,4282045.151,-3.021067677,13.45229272,-15.9732924,0.026346429,-0.749458942,0.65714179,0.076038339,3.165416667,2.67875,10.1585633,-0.065831638,0.028961557,-0.236437572,nan,nan,nan
213.008833,1523602.314,-4460897.002,4282043.999,-3.452656731,13.71267012,-17.13112134,0.028565201,-0.754923106,0.650593548,0.077480122,3.495416667,2.69875,9.6585633,-0.082194099,0.026779896,-0.232074249,nan,nan,nan
213.080966,1523602.044,-4460895.932,4282042.663,-3.923879708,14.00621287,-18.39594926,0.030817077,-0.760819002,0.643486728,0.078291664,3.285416667,2.70875,9.8585633,-0.066922469,0.038779034,-0.232074249,nan,nan,nan
213.157717,1523601.757,-4460894.907,4282041.317,-4.387027604,14.2948846,-19.5967271,0.032514187,-0.766407189,0.636690862,0.078661261,2.995416667,2.93875,10.1385633,-0.051650838,0.039869865,-0.236437572,nan,nan,nan
213.229756,1523601.415,-4460893.791,4282039.787,-4.854630134,14.64721583,-20.84415087,0.035184215,-0.772185723,0.629431699,0.07941673,2.385416667,2.57875,9.6985633,-0.074558284,0.04641485,-0.232074249,nan,nan,nan
213.308003,1523604.081,-4460896.453,4282058.861,-8.109065861,13.65614402,-4.845642016,0.133090608,0.918549775,0.323798739,-0.183596235,2.635416667,3.20875,10.3985633,-0.057104991,0.012599096,-0.236437572,42.443226,-71.142573,-3.9
213.38017,1523603.445,-4460895.382,4282058.481,-8.359136288,14.2812105,-6.208521187,0.133139085,0.915504622,0.333034367,-0.18224539,2.805416667,2.59875,10.1485633,-0.042924191,-0.013580843,-0.246255049,nan,nan,nan
213.46442,1523602.842,-4460894.352,4282058.033,-8.556934066,14.85708175,-7.481916659,0.133212607,0.912943263,0.341257787,-0.179811353,3.165416667,2.95875,10.2285633,-0.052741668,0.01914408,-0.241891726,nan,nan,nan
213.536763,1523602.101,-4460893.065,4282057.385,-8.800629387,15.53075858,-8.990822151,0.134045888,0.910071385,0.350627031,-0.175677147,2.855416667,2.99875,10.0385633,-0.045105853,0.052959834,-0.236437572,nan,nan,nan
213.609203,1523601.47,-4460891.952,4282056.741,-9.002365463,16.07658807,-10.18001489,0.134421719,0.907714199,0.357967353,-0.172757368,2.445416667,2.82875,9.2885633,-0.046196684,0.038779034,-0.222256772,nan,nan,nan
213.691374,1523600.813,-4460890.778,4282055.997,-9.221690542,16.6499765,-11.38642119,0.134283037,0.905231815,0.365244909,-0.170644613,2.395416667,2.52875,9.3485633,-0.049469176,0.012599096,-0.212439295,nan,nan,nan
213.767955,1523600.153,-4460889.586,4282055.182,-9.443271105,17.21060181,-12.52229704,0.134138869,0.902687733,0.372273104,-0.169039514,2.135416667,2.24875,8.8085633,-0.044015022,0.000599957,-0.209166803,nan,nan,nan
213.839165,1523599.43,-4460888.269,4282054.224,-9.687580881,17.81029197,-13.84047167,0.134043852,0.899932656,0.379466605,-0.167805117,2.315416667,2.68875,10.0785633,-0.036379207,-0.00921752,-0.200440156,nan,nan,nan
214.113514,1523598.731,-4460886.984,4282053.225,-9.930102285,18.38999049,-15.08619597,0.134438005,0.897462573,0.385835688,-0.16618717,2.325416667,2.46875,10.2185633,-0.02765256,0.009326603,-0.192804341,nan,nan,nan
214.184813,1523597.956,-4460885.549,4282052.048,-10.18818854,19.01585113,-16.36040069,0.134973872,0.895040267,0.392032908,-0.164302083,2.125416667,2.17875,9.3485633,-0.024380068,0.016962419,-0.175351048,nan,nan,nan
214.261486,1523605.806,-4460887.743,4282066.204,25.81591902,19.38850064,-9.08161727,-0.137257975,-0.842625758,-0.46810876,0.228070756,2.520416667,2.67075,9.7905633,-0.024380068,0.049687342,-0.083721263,42.443326,-71.142513,-4.3
214.333275,1523607.845,-4460886.212,4282065.487,25.36250002,20.0232623,-10.33714412,-0.138084746,-0.841507931,-0.470547397,0.226676316,1.835416667,1.02875,9.7385633,-0.009108437,0.024598234,-0.074994616,nan,nan,nan
214.412213,1523617.547,-4460878.552,4282061.533,23.67492662,23.02275581,-16.71737815,-0.144592095,-0.835422914,-0.47850266,0.228466378,2.440416667,2.45275,9.7245633,0.02797981,-0.004854197,-0.056450493,nan,nan,nan
214.489191,1523619.347,-4460876.802,4282060.262,23.12769801,23.60287785,-17.99837406,-0.145694178,-0.834577325,-0.479784042,0.228169164,1.045416667,0.74875,11.2885633,0.015980671,0.010417434,-0.046633016,nan,nan,nan
214.561712,1523621.011,-4460875.103,4282058.967,22.66126154,24.17175225,-19.19420317,-0.146967336,-0.833799818,-0.480895214,0.227855786,1.525416667,1.04875,10.7185633,0.021434825,0.014780757,-0.045542185,nan,nan,nan
214.633969,1523615.113,-4460868.462,4282077.444,-21.12798316,17.81991357,-7.031917924,-0.174054102,0.6941924,-0.354652355,0.601684128,2.100416667,2.07675,9.8875633,-0.014998923,0.012490012,-0.129754322,42.443505,-71.142333,-5.5
215.018197,1523613.272,-4460866.909,4282076.831,-20.6797409,17.75990761,-7.671172607,-0.174318736,0.693738304,-0.354137476,0.602434057,1.625416667,0.06875,10.5185633,0.007254025,0.022416573,-0.005181446,nan,nan,nan
215.292679,1523611.829,-4460865.669,4282076.296,-20.36294091,17.69515025,-8.165822254,-0.174432828,0.693263674,-0.353899592,0.603086848,1.895416667,0.61875,10.1985633,0.006163194,0.023507403,0.001363538,nan,nan,nan
215.363977,1523610.383,-4460864.412,4282075.716,-20.01519751,17.66178739,-8.669592234,-0.174334675,0.693013609,-0.353704948,0.603516669,1.755416667,0.05875,10.1485633,0.008344855,0.012599096,0.002454369,nan,nan,nan
215.434412,1523608.847,-4460863.057,4282075.051,-19.58675614,17.58852657,-9.268837448,-0.174192081,0.692648675,-0.354073583,0.603760573,1.205416667,0.04875,11.1185633,-0.002563452,0.007144942,0.013362677,nan,nan,nan
215.513719,1523607.442,-4460861.796,4282074.386,-19.21796348,17.55780203,-9.808058972,-0.174076657,0.692163334,-0.354634465,0.604021219,1.325416667,-0.06125,10.3885633,-0.006926775,0.009326603,0.018816831,nan,nan,nan
215.585158,1523605.937,-4460860.42,4282073.617,-18.84809837,17.60735614,-10.31429439,-0.173753085,0.691774092,-0.356030117,0.603739205,2.025416667,-0.70125,9.1585633,-0.020016745,-0.008126689,0.0319068,nan,nan,nan
215.774029,1523604.583,-4460859.155,4282072.876,-18.46317246,17.54848855,-10.79769515,-0.172856717,0.691868686,-0.357137716,0.603233727,2.195416667,-0.12125,10.6385633,-0.005835945,-0.025579982,0.032997631,nan,nan,nan
215.846661,1523603.118,-4460857.763,4282072.02,-18.0799694,17.50878989,-11.38849741,-0.172098119,0.691292617,-0.358490526,0.603308626,1.425416667,0.15875,10.1985633,-0.009108437,-0.002672535,0.040633447,nan,nan,nan
215.918715,1523601.829,-4460856.516,4282071.208,-17.66861927,17.56284979,-11.92106983,-0.170606186,0.690635937,-0.359008445,0.604175858,1.055416667,-1.37125,10.0285633,0.025798148,0.010417434,0.046087601,nan,nan,nan
215.990762,1523621.503,-4460859.829,4282087.33,-3.969210626,-4.308146953,42.18156362,0.448220655,-0.562464314,-0.524181892,0.456032327,1.603416667,-0.02525,10.3115633,0.02907064,-0.007035859,0.051541754,42.443581,-71.142218,-5.9
216.066542,1523621.155,-4460860.208,4282091.034,-4.223259589,-4.552056524,41.31165037,0.448363807,-0.564479827,-0.521992803,0.455912201,1.475416667,-0.17125,10.0785633,0.039978948,-0.001581705,0.054814247,nan,nan,nan
216.137959,1523620.832,-4460860.555,4282094.188,-4.449859684,-4.798836802,40.50898686,0.449388682,-0.565823157,-0.520067076,0.455438476,1.985416667,-0.21125,10.6385633,0.017071502,-0.013580843,0.064631724,nan,nan,nan
216.217099,1523620.508,-4460860.905,4282097.144,-4.706243087,-5.028722598,39.73155065,0.449460002,-0.567820324,-0.518222634,0.454984713,2.125416667,-0.76125,10.6085633,0.039978948,0.008235772,0.063540893,nan,nan,nan
216.287548,1523620.17,-4460861.267,4282099.997,-4.976063822,-5.215252107,39.01075946,0.449322403,-0.569921432,-0.516513125,0.45443716,1.595416667,-0.99125,9.9685633,0.04216061,0.015871588,0.062450062,nan,nan,nan
216.365911,1523619.812,-4460861.641,4282102.799,-5.233543068,-5.416098137,38.27888307,0.449124265,-0.5722429,-0.514740247,0.45372672,1.705416667,-0.79125,10.1885633,0.044342271,0.021325742,0.067904216,nan,nan,nan
216.544469,1523619.413,-4460862.054,4282105.718,-5.481656559,-5.671715049,37.49764997,0.449621464,-0.573918519,-0.512181226,0.454013728,1.655416667,-0.40125,10.7285633,0.046523933,-0.021216659,0.063540893,nan,nan,nan
216.619893,1523617.365,-4460864.173,4282119.725,-6.745641939,-6.73108598,33.6830853,0.450406544,-0.584024759,-0.501059689,0.452756242,1.724416667,-0.53625,10.2235633,0.045433102,-0.000490874,0.066813385,nan,nan,nan
216.705274,1523616.784,-4460864.753,4282122.63,-7.100101779,-7.014165689,32.81973336,0.450812779,-0.586126097,-0.498306569,0.452674939,1.375416667,-1.07125,10.6885633,0.044342271,-0.010308351,0.066813385,nan,nan,nan
216.7777,1523616.274,-4460865.257,4282124.988,-7.320386682,-7.244915023,32.06021788,0.4511276,-0.587889515,-0.496025334,0.45258002,2.035416667,-0.05125,10.6385633,0.044342271,-0.00921752,0.066813385,nan,nan,nan
216.849722,1523628.487,-4460851.548,4282096.735,5.359190867,5.698983091,2.316829799,-0.147969487,-0.040067098,-0.984689587,0.082982382,2.065416667,-0.84125,10.3185633,0.020343994,-0.005945028,0.074449201,42.443668,-71.142101,-6.3
216.922316,1523628.902,-4460851.107,4282096.914,4.822733316,6.023187593,1.077687089,-0.147672,-0.042136041,-0.984421418,0.085627138,1.425416667,-1.22125,10.6085633,0.059613902,-0.004854197,0.063540893,nan,nan,nan
216.994363,1523629.252,-4460850.669,4282096.992,4.282097317,6.359574649,-0.084188501,-0.147984247,-0.044570062,-0.984144571,0.087026636,1.965416667,-0.77125,10.6985633,0.02907064,0.013689926,0.071176709,nan,nan,nan
217.069778,1523629.562,-4460850.21,4282096.986,3.747404678,6.684802799,-1.22761449,-0.148836358,-0.0471459,-0.983744222,0.088726027,1.945416667,-0.91125,10.5585633,0.037797287,0.028961557,0.075540032,nan,nan,nan
217.14035,1523629.851,-4460849.694,4282096.892,3.213919995,7.039885058,-2.441104461,-0.149205477,-0.049510625,-0.983381566,0.090813654,1.495416667,-0.78125,10.3085633,0.045433102,0.013689926,0.067904216,nan,nan,nan
217.31916,1523630.081,-4460849.191,4282096.717,2.676695452,7.388019944,-3.58439509,-0.149155682,-0.051745288,-0.983090425,0.092780522,2.005416667,-0.49125,10.6785633,0.045433102,0.002781618,0.070085878,nan,nan,nan
217.391097,1523630.29,-4460848.612,4282096.436,2.151269212,7.773684431,-4.864881788,-0.148500748,-0.054136219,-0.98288145,0.09466178,1.145416667,-0.27125,10.7885633,0.037797287,-0.012490012,0.068995047,nan,nan,nan
217.575314,1523630.445,-4460848.052,4282096.086,1.64716897,8.129705827,-5.966823628,-0.147872666,-0.056292545,-0.982659955,0.096665598,1.725416667,-0.47125,9.8685633,0.045433102,-0.013580843,0.068995047,nan,nan,nan
217.646125,1523630.574,-4460847.416,4282095.619,1.063817809,8.483133096,-7.183565278,-0.14729008,-0.058805337,-0.982403627,0.098644207,2.035416667,-0.85125,10.3085633,0.039978948,-0.010308351,0.072267539,nan,nan,nan
217.732067,1523630.971,-4460844.248,4282092.936,-1.640849273,10.2031892,-13.08305123,-0.145914914,-0.071388989,-0.981118785,0.10496847,1.784416667,-0.66625,10.4775633,0.023616486,-0.001581705,0.072267539,nan,nan,nan
217.8024,1523636.726,-4460841.173,4282101.161,7.958057044,17.97662432,-10.69820457,0.214186269,0.008858711,-0.862170736,-0.459028744,1.525416667,-0.77125,9.7085633,0.038888117,-0.02230749,0.067904216,42.443756,-71.141978,-7.0
217.872304,1523637.333,-4460839.802,4282100.344,7.981806418,19.07363746,-11.64832237,0.213871392,0.00564398,-0.862256623,-0.459065017,1.165416667,-0.80125,9.7885633,0.018162333,-0.031034136,0.076630862,nan,nan,nan
217.943209,1523637.924,-4460838.388,4282099.481,7.929257425,20.18764049,-12.59139507,0.212981298,0.002972072,-0.862781834,-0.458516783,2.335416667,-0.42125,10.0685633,0.034524794,-0.00921752,0.070085878,nan,nan,nan
218.22198,1523638.493,-4460836.94,4282098.578,7.896698748,21.26538784,-13.51950484,0.211344485,0.00082543,-0.86360828,-0.457726519,2.185416667,-0.63125,10.2585633,0.04216061,0.016962419,0.067904216,nan,nan,nan
218.596138,1523639.068,-4460835.393,4282097.594,7.89591785,22.34245346,-14.46507755,0.209325492,-0.000947199,-0.864358184,-0.457238309,1.745416667,-0.87125,10.2785633,0.031252302,0.030052388,0.064631724,nan,nan,nan
218.690303,1523639.635,-4460833.788,4282096.555,7.887857762,23.47559421,-15.38226854,0.207907681,-0.002973978,-0.865086416,-0.456498681,1.915416667,-0.09125,10.8985633,0.038888117,0.012599096,0.062450062,nan,nan,nan
218.760387,1523640.245,-4460831.972,4282095.365,7.924655982,24.60402482,-16.36904748,0.206397003,-0.005211455,-0.8658544,-0.455707446,1.135416667,-0.86125,10.1785633,0.038888117,0.011508265,0.063540893,nan,nan,nan
219.035259,1523640.813,-4460830.21,4282094.193,7.884319828,25.67038487,-17.2616714,0.205265823,-0.007479596,-0.866415081,-0.45512076,2.025416667,-0.24125,9.8885633,0.034524794,0.001690788,0.065722555,nan,nan,nan
219.106637,1523641.431,-4460828.197,4282092.84,7.843716898,26.77771638,-18.24660562,0.20336245,-0.009482886,-0.867111275,-0.454611732,1.865416667,-0.76125,9.3585633,0.030161471,0.022416573,0.063540893,nan,nan,nan
219.179807,1523642.218,-4460825.508,4282091.007,7.784633229,28.30217728,-19.48846897,0.202092612,-0.012197211,-0.86794981,-0.453511776,2.055416667,0.03875,10.0685633,0.037797287,0.000599957,0.053723416,nan,nan,nan
219.553647,1523642.778,-4460823.472,4282089.605,7.755127452,29.28249718,-20.39121402,0.2018385,-0.014197028,-0.868163307,-0.453157961,1.635416667,-1.02125,9.0085633,0.022525656,-0.017944166,0.049360093,nan,nan,nan
219.635166,1523643.378,-4460821.208,4282088.029,7.670757102,30.37858536,-21.34584253,0.201541557,-0.015949208,-0.868933373,-0.451753713,2.315416667,-0.42125,9.0885633,0.049796425,-0.010308351,0.035179293,nan,nan,nan
219.717123,1523643.92,-4460819.061,4282086.52,7.644681241,31.44731783,-22.22082382,0.200581307,-0.017190157,-0.869212911,-0.451597778,1.865416667,0.02875,10.0985633,0.01488984,0.009326603,0.041724277,nan,nan,nan
219.789112,1523644.526,-4460816.568,4282084.758,7.627753084,32.63897147,-23.24611683,0.199304258,-0.018777118,-0.869780262,-0.451007238,1.885416667,-0.48125,10.3785633,0.02797981,0.012599096,0.046087601,nan,nan,nan
219.861557,1523643.284,-4460829.489,4282107.326,11.50940729,27.65364121,1.709561004,0.352117171,-0.43377575,0.144846575,-0.816622046,2.035416667,-0.73125,9.6285633,0.011617348,0.001690788,0.05917757,42.443856,-71.141861,-7.5
219.938095,1523644.209,-4460827.268,4282107.464,11.81910954,27.79039478,1.861154382,0.350083453,-0.433104563,0.146521582,-0.817553326,2.255416667,-0.10125,11.4885633,-0.014562591,0.001690788,0.070085878,nan,nan,nan
220.009745,1523645.059,-4460825.269,4282107.598,12.11829612,27.97763987,1.959358129,0.347857528,-0.432452635,0.146613796,-0.818831029,2.115416667,-1.01125,10.8785633,0.023616486,0.020234911,0.066813385,nan,nan,nan
220.083488,1523646.009,-4460823.077,4282107.751,12.41790543,28.20839212,2.034417796,0.345716934,-0.430343429,0.146907704,-0.8207938,2.045416667,-1.04125,10.2585633,0.006163194,0.055141496,0.07335837,nan,nan,nan
220.154499,1523650.646,-4460812.543,4282108.511,13.66054484,29.22563409,2.353350984,0.328888525,-0.433771423,0.143168552,-0.826545496,2.007416667,-0.55025,10.0255633,0.066158887,-0.008126689,0.07335837,nan,nan,nan
220.231499,1523651.824,-4460810.023,4282108.714,14.06253907,29.43523759,2.480819176,0.325046907,-0.434607226,0.142006766,-0.827825553,1.865416667,-1.00125,11.3785633,0.071613041,-0.007035859,0.068995047,nan,nan,nan
220.303085,1523652.835,-4460807.907,4282108.892,14.40959352,29.6023242,2.573021627,0.32192946,-0.435056684,0.141373717,-0.828915302,1.595416667,-0.98125,11.4285633,0.060704733,-0.003763366,0.072267539,nan,nan,nan
220.381562,1523653.885,-4460805.749,4282109.08,14.60756649,29.89393299,2.60629731,0.318754688,-0.435227057,0.14037403,-0.830221651,2.485416667,-0.85125,8.7585633,0.067249718,0.008235772,0.071176709,nan,nan,nan
220.453611,1523654.933,-4460803.603,4282109.267,14.86838493,30.12813766,2.641111131,0.315723911,-0.435680921,0.1407911,-0.831070643,1.815416667,-0.86125,9.7385633,0.034524794,-0.015762505,0.080994186,nan,nan,nan
220.531863,1523656.067,-4460801.306,4282109.468,15.25379346,30.30283318,2.779654882,0.312138693,-0.435070883,0.141860738,-0.832561286,1.915416667,-0.97125,11.9085633,0.018162333,0.008235772,0.104992463,nan,nan,nan
220.604543,1523649.126,-4460818.89,4282117.836,-9.409598808,-24.06086944,3.821536982,-0.076503389,0.380184596,0.573118427,0.721901776,2.001416667,-0.80325,10.5845633,0.04216061,0.021325742,0.088630001,42.443963,-71.141753,-8.0
220.708782,1523648.376,-4460820.808,4282118.141,-9.17211888,-22.800579,3.357986468,-0.072759108,0.381898686,0.573673041,0.720942958,1.545416667,-0.53125,10.3285633,0.062886395,0.014780757,0.085357509,nan,nan,nan
220.783919,1523647.71,-4460822.463,4282118.385,-9.052571584,-21.71699261,2.899530149,-0.070089924,0.383934217,0.573884472,0.719957313,1.745416667,-1.08125,8.7785633,0.051978087,-0.008126689,0.080994186,nan,nan,nan
220.857068,1523647.019,-4460824.122,4282118.606,-8.878613401,-20.67478698,2.474671935,-0.067999099,0.38667599,0.573930207,0.71865285,0.965416667,0.24875,8.2185633,0.046523933,-0.033215797,0.077721693,nan,nan,nan
220.933479,1523646.288,-4460825.823,4282118.81,-8.924833802,-19.54511511,2.05217345,-0.066539152,0.390659544,0.574849151,0.715895325,3.205416667,-0.37125,6.5085633,0.074885533,-0.073576536,0.067904216,nan,nan,nan
221.005918,1523645.609,-4460827.312,4282118.966,-8.868558092,-18.45371646,1.508071361,-0.064123411,0.392583458,0.575846711,0.714259744,1.705416667,-1.84125,7.7085633,0.071613041,-0.014671674,0.061359232,nan,nan,nan
221.083801,1523644.972,-4460828.636,4282119.074,-8.618555501,-17.36237985,0.984698454,-0.062313965,0.394541263,0.57726329,0.712194676,0.235416667,-1.24125,10.1385633,0.08470301,-0.029943305,0.048269262,nan,nan,nan
221.155993,1523644.359,-4460829.871,4282119.144,-8.408250272,-16.28354447,0.634127431,-0.060352588,0.3959493,0.576451023,0.712240083,1.745416667,0.70875,9.8185633,0.007254025,0.002781618,0.071176709,nan,nan,nan
221.23448,1523643.753,-4460831.044,4282119.19,-8.24189446,-15.19066204,0.241790307,-0.059705833,0.398712334,0.575985237,0.711129169,1.935416667,0.00875,9.4085633,0.020343994,-0.057214075,0.060268401,nan,nan,nan
221.306126,1523643.11,-4460832.23,4282119.209,-8.078281779,-13.95040767,-0.238873268,-0.057652181,0.40033545,0.57569801,0.710619135,2.155416667,-0.92125,9.8085633,0.025798148,-0.004854197,0.063540893,nan,nan,nan
221.485324,1523657.276,-4460799.291,4282136.278,6.938592042,23.63763796,16.39766082,0.382934657,0.532980549,-0.299668384,0.692453351,1.715416667,-0.59925,9.2625633,0.048814678,-0.018271416,0.07052221,42.444194,-71.141558,-7.0
221.557454,1523657.904,-4460797.151,4282137.762,7.516452847,24.09521161,16.16424003,0.384537319,0.53181292,-0.29929643,0.692623791,2.365416667,-0.54125,9.4685633,0.035615625,0.006054111,0.026452646,nan,nan,nan
221.634572,1523658.445,-4460795.417,4282138.925,7.987297321,24.46017,15.96031738,0.385477622,0.531350291,-0.299266695,0.692469001,2.195416667,-0.28125,9.5585633,0.018162333,-0.001581705,0.023180154,nan,nan,nan
221.716012,1523659.029,-4460793.627,4282140.094,8.532099259,24.85254692,15.72997857,0.386665344,0.53096486,-0.298934836,0.692245761,1.665416667,0.02875,10.3485633,0.025798148,-0.00921752,0.023180154,nan,nan,nan
221.787659,1523659.64,-4460791.847,4282141.22,8.951289279,25.21473057,15.56788429,0.387697652,0.531561242,-0.29872491,0.691300662,2.595416667,-0.87125,9.0385633,0.005072363,-0.03648829,0.022089323,nan,nan,nan
221.859902,1523662.975,-4460782.455,4282147.019,11.45787969,26.94175711,14.46281973,0.39855183,0.529069249,-0.297005376,0.687771747,2.505416667,0.11875,9.6985633,0.036924622,-0.021871157,0.046742099,nan,nan,nan
221.935824,1523663.766,-4460780.595,4282148.017,11.89986982,27.27148966,14.2723,0.398293386,0.52897773,-0.297625946,0.68772359,2.605416667,-0.11125,9.4185633,-0.015653422,0.010417434,0.005726862,nan,nan,nan
222.006766,1523664.604,-4460778.673,4282149.023,12.45355998,27.6047642,14.01336881,0.398410384,0.528808705,-0.297542378,0.687821964,2.015416667,0.99875,10.5785633,0.006163194,0.002781618,0.001363538,nan,nan,nan
222.085372,1523665.853,-4460775.906,4282150.428,13.19425191,28.07923769,13.75530507,0.397424191,0.528669269,-0.299787522,0.687524733,2.605416667,-0.02125,10.4185633,-0.041833361,0.022416573,0.013362677,nan,nan,nan
222.15642,1523666.77,-4460773.954,4282151.384,13.73459036,28.44034861,13.54948474,0.397413684,0.52857074,-0.299922627,0.687547638,1.945416667,0.10875,10.6985633,-0.001472622,0.003872449,0.002454369,nan,nan,nan
222.230002,1523662.396,-4460786.46,4282148.745,9.166364568,1.969351159,5.806573193,-0.056939786,-0.362605256,-0.928363273,-0.058454456,2.725416667,0.42875,10.5785633,-0.015653422,0.028961557,0.005726862,42.444321,-71.14148,-6.9
222.301006,1523663.12,-4460786.305,4282149.205,8.80572594,2.789792933,4.497969545,-0.05834692,-0.362486336,-0.928292232,-0.058930688,2.505416667,0.39875,10.4685633,0.001799871,0.037688204,-0.000818123,nan,nan,nan
222.371601,1523663.747,-4460786.106,4282149.525,8.458822652,3.520670318,3.341015368,-0.058965113,-0.362201495,-0.928354635,-0.059083534,2.675416667,0.12875,10.1885633,0.002890702,0.018053249,-0.007363108,nan,nan,nan
222.445838,1523666.088,-4460785.132,4282150.449,7.161993646,6.434824078,-1.004350417,-0.056500678,-0.359938968,-0.929560823,-0.05628756,2.785416667,0.48875,9.6785633,0.013799009,-0.02339832,-0.018271416,nan,nan,nan
222.517657,1523666.608,-4460784.664,4282150.376,6.834225588,7.233851909,-2.134767943,-0.056545635,-0.359135785,-0.929928971,-0.055282806,3.045416667,1.00875,9.5685633,0.02797981,-0.008126689,-0.022634739,nan,nan,nan
222.590844,1523667.831,-4460783.371,4282149.995,6.026035752,9.156876376,-5.004614842,-0.059416956,-0.357408011,-0.930407945,-0.055409341,2.825416667,0.81875,10.0185633,0.011617348,0.031143219,-0.018271416,nan,nan,nan
222.690378,1523668.263,-4460782.713,4282149.635,5.685156518,9.888436949,-6.180729125,-0.060024688,-0.356830992,-0.930580289,-0.05557883,2.515416667,0.25875,10.2985633,0.002890702,0.018053249,-0.016089754,nan,nan,nan
222.762455,1523664.026,-4460776.79,4282158.271,-7.98708038,17.33864698,-1.365701951,-0.406866704,0.135298032,-0.889130835,-0.160000896,2.564416667,0.46175,10.2495633,0.005072363,0.01914408,-0.018271416,42.44445,-71.14141,-6.7
222.840365,1523660.914,-4460770.036,4282157.739,-12.61014142,20.49612295,-5.658938142,-0.411094956,0.136792275,-0.886664036,-0.16160352,2.564416667,0.46175,10.2495633,-0.009108437,0.024598234,-0.008453939,nan,nan,nan
223.215476,1523660.014,-4460768.573,4282157.335,-13.45418808,21.09120654,-6.451321283,-0.411922726,0.137246884,-0.886206386,-0.16162055,2.295416667,0.60875,10.3385633,-0.000381791,0.027870726,-0.009544769,nan,nan,nan
223.290276,1523659.074,-4460767.099,4282156.884,-14.24096331,21.64724986,-7.202736754,-0.411876979,0.137742148,-0.886138071,-0.161690364,2.305416667,0.33875,9.6185633,0.003981532,0.001690788,-0.013908092,nan,nan,nan
223.363199,1523653.77,-4460759.036,4282154.201,-18.57468012,24.43494684,-11.21395348,-0.413735382,0.14084068,-0.884847422,-0.161344282,2.705416667,-0.05125,9.8385633,0.006054111,0.014671674,-0.013362677,nan,nan,nan
223.442757,1523652.295,-4460757.095,4282153.311,-19.56349362,25.08971038,-12.04952615,-0.414181017,0.141493782,-0.884534512,-0.161345258,3.035416667,0.86875,10.4685633,0.003981532,0.015871588,-0.013908092,nan,nan,nan
223.51521,1523664.052,-4460764.244,4282167.03,-20.543591,7.499487335,7.797724466,-0.103788617,-0.459744005,0.6517525,0.594207079,2.695416667,-0.16125,10.3485633,0.006272277,0.012490012,-0.014671674,42.44458,-71.141345,-6.6
223.591639,1523662.467,-4460763.666,4282167.632,-21.18131902,8.554628679,6.853870501,-0.103991216,-0.459755902,0.651682426,0.594239307,3.875416667,-0.41125,9.9085633,0.00070904,-0.003763366,-0.004090615,nan,nan,nan
223.975501,1523660.816,-4460762.999,4282168.166,-21.8234265,9.630616062,5.923642099,-0.103834831,-0.459910432,0.651888688,0.593920754,3.595416667,-0.24125,9.9185633,0.006163194,0.009326603,0.001363538,nan,nan,nan
224.052166,1523654.835,-4460760.36,4282169.79,-24.20999497,13.40494133,2.577306969,-0.105662763,-0.462440174,0.653689254,0.589639573,4.055416667,-0.08125,10.1685633,0.032343133,0.018053249,-0.017180585,nan,nan,nan
224.124218,1523652.766,-4460759.214,4282170.01,-24.96970049,14.53821425,1.618221094,-0.106287768,-0.46338498,0.654278864,0.588129611,3.675416667,0.88875,9.5385633,0.035615625,0.021325742,-0.020453077,nan,nan,nan
224.19732,1523650.971,-4460758.169,4282170.126,-25.57017763,15.49008186,0.764709738,-0.106300794,-0.464179723,0.653986769,0.587825341,3.815416667,0.09875,9.4885633,-0.001472622,0.015871588,-0.019362246,nan,nan,nan
224.267904,1523649.114,-4460757.044,4282170.182,-26.22901173,16.48325273,-0.089566713,-0.106554725,-0.464794913,0.653944031,0.587340604,3.915416667,0.64875,10.1385633,0.009435686,0.011508265,-0.017180585,nan,nan,nan
224.345265,1523647.227,-4460755.858,4282170.175,-26.8977633,17.45426231,-0.909871726,-0.106187472,-0.465669476,0.653496017,0.587213007,3.865416667,1.08875,9.9685633,-0.012380929,0.021325742,-0.016089754,nan,nan,nan
224.417954,1523664.45,-4460754.029,4282177.89,7.918213063,36.73828213,-4.505778714,-0.537154981,0.318664983,-0.64971752,-0.433340858,3.525416667,0.26875,9.1585633,0.00779944,0.013908092,-0.013035428,42.444713,-71.141285,-6.4
224.495607,1523665.061,-4460751.194,4282177.542,6.979409254,37.17270916,-4.918654917,-0.536728267,0.319946529,-0.649197625,-0.433704312,3.765416667,0.12875,9.2485633,0.009435686,0.011508265,-0.035724708,nan,nan,nan
224.566723,1523665.604,-4460748.3,4282177.159,6.021164567,37.58189259,-5.300238779,-0.536129296,0.320808161,-0.64873835,-0.434495173,4.305416667,0.38875,9.2885633,-0.001472622,-0.000490874,-0.035724708,nan,nan,nan
224.645273,1523667.857,-4460734.242,4282175.177,1.309742185,39.71472316,-7.254429429,-0.535335633,0.331522379,-0.641690973,-0.437882825,3.839416667,0.27775,9.6825633,0.003981532,0.036597373,-0.060813816,nan,nan,nan
224.727234,1523667.969,-4460730.837,4282174.555,0.232244292,40.23731654,-7.647778559,-0.534642186,0.333571604,-0.640043024,-0.439582354,3.595416667,1.11875,9.7585633,-0.011290099,0.018053249,-0.071722124,nan,nan,nan
224.803784,1523667.986,-4460727.933,4282174.003,-0.620836172,40.63864311,-7.962802542,-0.533559529,0.33442163,-0.639058478,-0.441679368,3.985416667,1.15875,8.9185633,-0.02656173,-0.013580843,-0.068449632,nan,nan,nan
224.875533,1523667.941,-4460724.988,4282173.426,-1.528400112,41.02278799,-8.266710381,-0.532404672,0.335476328,-0.637991226,-0.443810877,4.435416667,1.18875,9.5385633,-0.024380068,-0.011399182,-0.073903786,nan,nan,nan
224.948685,1523667.83,-4460722.027,4282172.829,-2.434335748,41.41836547,-8.57986391,-0.53049061,0.337459249,-0.637332179,-0.445543109,4.225416667,1.12875,9.6085633,0.008344855,-0.015762505,-0.090266247,nan,nan,nan
225.020474,1523667.643,-4460718.843,4282172.169,-3.454233493,41.79162731,-8.88414824,-0.528973046,0.339515897,-0.635940436,-0.44776806,5.085416667,1.24875,10.1585633,-0.011290099,-0.001581705,-0.09462957,nan,nan,nan
225.096746,1523667.394,-4460715.828,4282171.528,-4.395207634,42.20935245,-9.212600403,-0.528315801,0.342204162,-0.633847752,-0.449461627,3.965416667,1.07875,10.1585633,-0.010199268,0.036597373,-0.100083724,nan,nan,nan
225.169469,1523667.841,-4460744.136,4282189.395,0.454612674,-6.743547524,31.8752864,0.238844534,-0.313674741,0.793963343,0.462799802,4.225416667,0.94875,9.7185633,0.002890702,0.023507403,-0.106628709,42.444833,-71.141226,-6.1
225.248061,1523667.875,-4460744.637,4282191.762,-0.447026709,-5.992190373,31.19481601,0.238328523,-0.317373832,0.791909994,0.464060263,4.175416667,1.68875,9.6385633,-0.024380068,0.037688204,-0.110992032,nan,nan,nan
225.319431,1523667.841,-4460745.097,4282194.156,-1.358270125,-5.224021469,30.44129692,0.23726186,-0.320976206,0.789843687,0.465647975,3.975416667,1.00875,9.7185633,-0.02656173,0.021325742,-0.114264524,nan,nan,nan
225.39768,1523667.73,-4460745.524,4282196.644,-2.317389546,-4.489607948,29.68604428,0.236557614,-0.324817393,0.78740188,0.467474529,4.645416667,1.12875,8.7685633,-0.035288376,0.030052388,-0.112082863,nan,nan,nan
225.470017,1523667.553,-4460745.867,4282198.91,-3.188960485,-3.761255076,28.99603216,0.235381829,-0.32851161,0.785213729,0.469164062,4.005416667,1.42875,8.7985633,-0.028743391,0.020234911,-0.119718678,nan,nan,nan
225.549102,1523667.324,-4460746.137,4282200.993,-4.043176399,-3.089462498,28.29741768,0.233239374,-0.331733475,0.78343857,0.470931316,4.395416667,0.90875,9.3285633,-0.021107576,-0.00921752,-0.126263663,nan,nan,nan
225.62036,1523667.027,-4460746.364,4282203.07,-4.932976294,-2.389389851,27.67258862,0.231065934,-0.335021669,0.781537397,0.47283011,4.475416667,2.14875,9.0485633,-0.024380068,-0.00921752,-0.127354494,nan,nan,nan
225.708801,1523666.674,-4460746.534,4282205.047,-5.804981502,-1.725960546,26.97025695,0.228350441,-0.337660537,0.779732649,0.475245658,4.645416667,0.93875,9.5485633,-0.034197545,-0.035397459,-0.126263663,nan,nan,nan
225.780989,1523666.23,-4460746.667,4282207.114,-6.675176487,-1.057060901,26.21116616,0.22476897,-0.342249075,0.778499446,0.475692226,4.505416667,0.44875,8.6685633,0.034524794,-0.012490012,-0.151352771,nan,nan,nan
225.856961,1523665.749,-4460746.743,4282209.001,-7.563714362,-0.390669227,25.4832028,0.221080806,-0.346764165,0.777266205,0.476167132,4.765416667,0.81875,9.7385633,0.036706456,-0.016853336,-0.161170248,nan,nan,nan
225.929222,1523665.157,-4460746.773,4282210.996,-8.591455757,0.351206561,24.76893423,0.217953601,-0.351077539,0.775198306,0.477816258,5.135416667,2.10875,9.9385633,-0.005835945,-0.012490012,-0.151352771,nan,nan,nan
226.002676,1523664.538,-4460746.748,4282212.782,-9.556392896,1.063385823,24.08601421,0.216925768,-0.355357221,0.772806911,0.478992625,4.985416667,2.05875,10.4985633,-0.021107576,0.037688204,-0.13608114,nan,nan,nan
226.073982,1523663.783,-4460746.664,4282214.684,-10.53749937,1.766856729,23.31104555,0.216737606,-0.36025531,0.769764607,0.480315908,5.045416667,1.17875,9.4485633,-0.034197545,0.06059565,-0.132808648,nan,nan,nan
226.15067,1523663.029,-4460746.537,4282216.352,-11.37338637,2.44208759,22.60745096,0.216771602,-0.364998071,0.766861372,0.48136277,4.105416667,1.07875,9.2885633,-0.033106714,0.071503958,-0.137171971,nan,nan,nan
226.222117,1523670.009,-4460736.396,4282199.629,-0.872211943,19.85355794,-7.926544378,-0.836635428,-0.061384178,0.523350467,-0.149590885,4.035416667,1.18875,9.1785633,-0.036379207,0.037688204,-0.138262802,42.44494,-71.141176,-5.8
226.500395,1523669.944,-4460734.933,4282199.045,-0.330888424,20.28721024,-8.370943803,-0.836344067,-0.064815989,0.52233871,-0.153263701,3.745416667,0.73875,8.9685633,-0.022198406,-0.026670813,-0.134990309,nan,nan,nan
226.570632,1523669.812,-4460726.804,4282195.691,2.948154578,22.72576307,-11.02804042,-0.829408895,-0.081678253,0.52360449,-0.176770714,4.544416667,1.27075,9.4325633,-0.012380929,0.018053249,-0.146989448,nan,nan,nan
226.644367,1523670.041,-4460725.036,4282194.833,3.58217542,23.21463268,-11.5264377,-0.828453525,-0.085518017,0.523080502,-0.180937046,4.115416667,1.58875,9.5285633,-0.025470899,-0.007035859,-0.145898617,nan,nan,nan
226.724759,1523670.3,-4460723.356,4282193.999,4.131827621,23.62193064,-12.00746405,-0.827749676,-0.089283661,0.522235678,-0.184739816,4.345416667,0.97875,8.9585633,-0.028743391,-0.019034997,-0.146989448,nan,nan,nan
226.801705,1523670.621,-4460721.525,4282193.068,4.734495623,24.06634682,-12.50889373,-0.826659925,-0.09341434,0.521741233,-0.188926482,4.225416667,1.07875,9.1885633,-0.032015883,-0.005945028,-0.151352771,nan,nan,nan
226.873852,1523670.964,-4460719.781,4282192.162,5.30336574,24.4996791,-12.90139396,-0.825357079,-0.097638126,0.521825845,-0.192224544,3.275416667,0.97875,9.7085633,-0.052741668,0.007144942,-0.142626125,nan,nan,nan
227.249445,1523671.38,-4460717.856,4282191.148,5.897419047,24.9923628,-13.39435125,-0.824121876,-0.102204075,0.521552563,-0.195858073,3.735416667,1.48875,9.0685633,-0.049469176,-0.002672535,-0.143716956,nan,nan,nan
227.619777,1523671.803,-4460716.063,4282190.187,6.424051829,25.41047192,-13.81655845,-0.822967319,-0.106247417,0.521300141,-0.199204523,3.505416667,0.89875,9.0585633,-0.046196684,-0.001581705,-0.142626125,nan,nan,nan
227.698713,1523671.966,-4460728.315,4282205.45,4.909497507,4.9955413,9.399616189,-0.282508311,-0.016209447,-0.471207597,-0.835397935,3.415416667,1.13875,9.6785633,-0.049469176,0.006054111,-0.139353632,42.445026,-71.14113,-5.6
227.7694,1523672.349,-4460727.924,4282206.185,4.343564933,6.002956819,9.430893389,-0.278148371,-0.013833498,-0.469663675,-0.837769748,3.415416667,0.67875,9.8785633,-0.046196684,0.010417434,-0.138262802,nan,nan,nan
227.839475,1523672.723,-4460727.407,4282206.997,3.753037905,7.101088007,9.485545699,-0.272642097,-0.011354148,-0.46838366,-0.840329768,3.205416667,1.09875,9.8185633,-0.038560868,-0.002672535,-0.15026194,nan,nan,nan
227.914694,1523672.987,-4460726.908,4282207.664,3.264111522,7.974876928,9.503196686,-0.268291648,-0.008802779,-0.467241855,-0.842393704,3.315416667,0.89875,9.3685633,-0.036379207,0.012599096,-0.153534433,nan,nan,nan
227.985324,1523673.235,-4460726.304,4282208.384,2.768937731,8.918953772,9.530823234,-0.263396749,-0.005331673,-0.466526034,-0.844361999,2.955416667,1.16875,9.3785633,-0.016744253,0.022416573,-0.165533571,nan,nan,nan
228.059064,1523674.273,-4460722.959,4282211.958,0.089236811,13.52667451,9.686795587,-0.230464352,0.007166885,-0.462094169,-0.856331593,3.539416667,1.04075,9.4105633,-0.033106714,-0.019034997,-0.196076833,nan,nan,nan
228.134606,1523674.28,-4460721.943,4282212.686,-0.401013119,14.47379266,9.767541413,-0.223525268,0.009814893,-0.461239457,-0.85860252,2.975416667,1.79875,9.8885633,-0.029834222,-0.020125828,-0.204803479,nan,nan,nan
228.206025,1523674.251,-4460720.905,4282213.387,-0.903035992,15.36189184,9.927262779,-0.217000209,0.013130879,-0.459974267,-0.860907756,3.695416667,2.66875,10.4785633,-0.037470037,0.002781618,-0.213530126,nan,nan,nan
228.277658,1523674.187,-4460719.817,4282214.09,-1.369843763,16.32333992,10.04601994,-0.210716511,0.017116221,-0.458501973,-0.863181052,2.725416667,1.82875,11.0185633,-0.038560868,0.023507403,-0.21898428,nan,nan,nan
228.356127,1523674.087,-4460718.628,4282214.821,-1.847914307,17.2369081,10.10152901,-0.204445839,0.021276358,-0.456316657,-0.865750729,2.895416667,1.62875,9.6785633,-0.057104991,0.031143219,-0.216802618,nan,nan,nan
228.428161,1523673.999,-4460723.424,4282211.963,-3.946543497,8.510137689,9.930594515,-0.352652675,0.152461178,-0.082041787,-0.919598187,2.915416667,1.16875,9.5385633,-0.051650838,0.015871588,-0.228801757,42.445088,-71.141086,-5.5
228.505802,1523673.706,-4460722.792,4282212.7,-4.439813848,8.783331678,10.09462578,-0.344827004,0.152788603,-0.078951135,-0.922776625,3.205416667,1.92875,9.6185633,-0.048378345,0.007144942,-0.237528403,nan,nan,nan
228.577928,1523673.331,-4460722.05,4282213.553,-5.056975091,9.140470372,10.27412052,-0.335951679,0.15297826,-0.075249936,-0.926321526,3.295416667,1.11875,9.7885633,-0.053832499,0.00496328,-0.236437572,nan,nan,nan
228.964262,1523672.968,-4460721.394,4282214.29,-5.559472195,9.443929634,10.4183673,-0.328958831,0.153438201,-0.071432706,-0.929053376,3.075416667,1.28875,9.5885633,-0.070194961,0.021325742,-0.223347603,nan,nan,nan
229.335435,1523672.563,-4460720.705,4282215.05,-6.13802326,9.710480924,10.42180255,-0.322005191,0.151944268,-0.067643953,-0.932013891,4.555416667,0.72875,8.0385633,-0.086557423,-0.029943305,-0.216802618,nan,nan,nan
229.410803,1523672.121,-4460720.007,4282215.799,-6.667560544,10.01220852,10.57097976,-0.31471929,0.15037877,-0.064756135,-0.934957024,3.315416667,1.10875,9.7785633,-0.063649976,-0.040851613,-0.224438433,nan,nan,nan
229.48286,1523671.608,-4460719.237,4282216.613,-7.248926481,10.35859992,10.72707001,-0.306901241,0.15054195,-0.061288148,-0.937759304,3.295416667,0.75875,9.7985633,-0.057104991,0.008235772,-0.226620095,nan,nan,nan
229.56105,1523671.083,-4460718.486,4282217.39,-7.773840088,10.66903775,10.87767464,-0.299358026,0.151360734,-0.058818363,-0.940220773,3.155416667,1.12875,9.7485633,-0.029834222,0.01914408,-0.227710926,nan,nan,nan
229.94479,1523670.471,-4460717.646,4282218.246,-8.341836734,11.00607333,11.01823541,-0.291304623,0.151417983,-0.055830931,-0.942919466,3.175416667,1.11875,9.4685633,-0.044015022,0.001690788,-0.224438433,nan,nan,nan
230.021061,1523669.822,-4460716.79,4282219.104,-8.906839646,11.33638153,11.17709461,-0.283580698,0.151154744,-0.05251426,-0.945503297,3.145416667,1.19875,9.7285633,-0.056014161,-0.002672535,-0.21898428,nan,nan,nan
230.092906,1523669.187,-4460715.982,4282219.9,-9.425133408,11.64108551,11.32403795,-0.276788438,0.151111875,-0.049043235,-0.947706771,3.115416667,1.17875,9.7585633,-0.066922469,0.007144942,-0.212439295,nan,nan,nan
230.166721,1523668.497,-4460715.129,4282220.73,-9.941435289,11.94757329,11.46791868,-0.269734839,0.151493911,-0.045542238,-0.949851892,2.985416667,1.35875,9.5985633,-0.061468315,0.018053249,-0.213530126,nan,nan,nan
230.237241,1523667.714,-4460714.189,4282221.632,-10.51518619,12.31645383,11.60684786,-0.261979262,0.151902052,-0.042248561,-0.952106975,2.935416667,0.77875,9.4985633,-0.049469176,0.014780757,-0.215711787,nan,nan,nan
230.4147,1523678.283,-4460715.242,4282220.362,3.360210742,-1.460921141,10.12127998,-0.960536947,-0.01073773,0.277944844,0.000373419,3.275416667,1.06475,9.5005633,-0.060377484,-0.004854197,-0.193895172,42.445178,-71.141001,-5.0
230.48607,1523678.58,-4460715.371,4282221.258,3.849006782,-0.777863571,10.1003542,-0.960484465,-0.015217957,0.277818321,-0.007415389,3.235416667,0.68875,9.6085633,-0.048378345,-0.000490874,-0.197167664,nan,nan,nan
230.688476,1523678.859,-4460715.428,4282221.989,4.239768714,-0.209259357,10.07541691,-0.960495366,-0.018644754,0.277312959,-0.014090753,3.175416667,0.84875,9.4585633,-0.039651699,-0.011399182,-0.203712649,nan,nan,nan
230.764289,1523679.179,-4460715.444,4282222.751,4.690661826,0.392448139,10.07868458,-0.96032562,-0.022184624,0.277206361,-0.020956607,3.435416667,0.95875,10.0885633,-0.039651699,0.000599957,-0.200440156,nan,nan,nan
230.835159,1523679.516,-4460715.415,4282223.473,5.077244912,0.962387021,10.1142825,-0.960110997,-0.025830087,0.277105554,-0.027059059,2.695416667,0.92875,10.1685633,-0.050560007,0.000599957,-0.19171351,nan,nan,nan
231.504876,1523679.895,-4460715.344,4282224.229,5.485652192,1.531310469,10.09544862,-0.959695677,-0.029555723,0.277499957,-0.033233131,3.165416667,0.64875,9.5685633,-0.050560007,0.014780757,-0.186259356,nan,nan,nan
231.577207,1523681.404,-4460714.922,4282227.005,6.984980385,3.675966785,10.06980103,-0.958562952,-0.042406681,0.276431705,-0.054260969,3.035416667,0.82875,9.7085633,-0.047287514,-0.003763366,-0.173169387,nan,nan,nan
231.648381,1523681.911,-4460714.656,4282227.736,7.386451294,4.196985571,10.06236233,-0.958097175,-0.045341382,0.27645059,-0.059741401,3.155416667,0.23875,9.7185633,-0.036379207,0.006054111,-0.167715233,nan,nan,nan
231.731037,1523682.441,-4460714.354,4282228.458,7.783582109,4.748049664,10.06522398,-0.957553241,-0.048060957,0.276685957,-0.065013976,3.005416667,0.72875,9.8685633,-0.033106714,0.012599096,-0.162261079,nan,nan,nan
231.802457,1523683.119,-4460713.941,4282229.335,8.24095259,5.404649583,10.06178873,-0.957094871,-0.051571817,0.276111401,-0.07121973,2.815416667,0.58875,9.6485633,-0.037470037,-0.008126689,-0.160079417,nan,nan,nan
231.87756,1523683.705,-4460713.557,4282230.051,8.634717338,5.951073283,10.02101453,-0.956680846,-0.054817369,0.275630732,-0.076055999,3.305416667,0.83875,9.3585633,-0.049469176,-0.00921752,-0.156806925,nan,nan,nan
231.948426,1523681.995,-4460711.997,4282221.786,11.57798215,8.219146455,-3.724252915,-0.612607003,-0.116737596,0.76874614,0.141825126,3.495416667,0.26875,9.8685633,-0.046196684,-0.002672535,-0.151352771,42.445206,-71.140951,-5.4
232.021179,1523682.899,-4460711.355,4282221.495,12.01896046,9.050143846,-4.637541362,-0.61295813,-0.121872277,0.767985327,0.140100024,3.155416667,0.33875,9.6885633,-0.048378345,0.00496328,-0.131717817,nan,nan,nan
232.093299,1523683.765,-4460710.703,4282221.161,12.40981163,9.837105941,-5.499562839,-0.613219367,-0.12652134,0.767301824,0.138572252,3.455416667,0.65875,9.6485633,-0.048378345,0.006054111,-0.128445325,nan,nan,nan
232.169238,1523684.655,-4460709.998,4282220.767,12.79512773,10.57282658,-6.361886283,-0.613009603,-0.131080062,0.767049479,0.136646779,3.535416667,0.05875,9.3785633,-0.038560868,0.024598234,-0.130626986,nan,nan,nan
232.240106,1523685.632,-4460709.191,4282220.281,13.23152409,11.38791609,-7.253443081,-0.613092917,-0.136065725,0.766559593,0.134125259,3.085416667,0.33875,9.7685633,-0.030925053,0.016962419,-0.142626125,nan,nan,nan
232.616803,1523689.243,-4460706.083,4282218.301,14.63440605,14.13844695,-10.60152445,-0.612357058,-0.153444662,0.765253115,0.125941411,3.795416667,-0.01125,9.1585633,-0.034197545,0.023507403,-0.134990309,nan,nan,nan
232.696189,1523690.388,-4460704.977,4282217.472,15.05292191,14.99467566,-11.58850744,-0.612243073,-0.158326061,0.76479052,0.123234488,3.965416667,0.75875,9.7785633,-0.025470899,0.021325742,-0.139353632,nan,nan,nan
232.771911,1523691.477,-4460703.892,4282216.634,15.48006523,15.78084516,-12.44326884,-0.612078711,-0.162880572,0.764284032,0.121241448,3.055416667,0.48875,10.0785633,-0.037470037,0.01914408,-0.131717817,nan,nan,nan
232.844293,1523692.831,-4460702.511,4282215.545,15.95860881,16.72354496,-13.4855153,-0.612107058,-0.168372876,0.763435744,0.118917571,3.225416667,0.57875,9.6785633,-0.038560868,0.011508265,-0.131717817,nan,nan,nan
232.92308,1523694.008,-4460701.278,4282214.55,16.37385005,17.50176564,-14.35081383,-0.612127074,-0.173020344,0.762646391,0.117195937,3.025416667,0.30875,9.6985633,-0.044015022,0.009326603,-0.128445325,nan,nan,nan
232.994476,1523695.258,-4460699.942,4282213.455,16.81023377,18.3189341,-15.25416579,-0.611913377,-0.177580532,0.76209543,0.11505533,3.085416667,0.41875,9.8685633,-0.033106714,0.01914408,-0.127354494,nan,nan,nan
233.072994,1523686.019,-4460708.835,4282222.782,12.07599604,6.270767231,-6.537953765,-0.623502959,0.105971931,0.764527308,-0.124547205,3.145416667,0.13875,10.0085633,-0.028743391,0.024598234,-0.137171971,42.445225,-71.140906,-5.6
233.145519,1523686.97,-4460708.341,4282222.267,12.56772182,6.564300574,-7.421255002,-0.622714032,0.1013075,0.765413697,-0.126909018,2.765416667,0.03875,9.8385633,-0.028743391,0.008235772,-0.132808648,nan,nan,nan
233.224337,1523687.874,-4460707.869,4282221.733,13.04430973,6.897157495,-8.234689762,-0.62179874,0.096946703,0.766339782,-0.129193667,2.775416667,1.02875,9.9285633,-0.02765256,0.013689926,-0.138262802,nan,nan,nan
233.297357,1523692.763,-4460705.284,4282218.647,15.36826107,8.425178188,-12.60505091,-0.613357164,0.069286472,0.773954224,-0.141376215,3.192416667,0.40875,9.7805633,-0.042924191,0.034415711,-0.16335191,nan,nan,nan
233.373244,1523693.85,-4460704.688,4282217.755,15.8435206,8.748702363,-13.3928792,-0.611808016,0.064027514,0.77512822,-0.144109933,2.375416667,0.98875,10.0485633,-0.033106714,0.027870726,-0.170987725,nan,nan,nan
233.443252,1523695.064,-4460704.017,4282216.728,16.35024181,9.077329858,-14.23510817,-0.610408945,0.058033501,0.776186905,-0.146856806,2.245416667,0.66875,10.0085633,-0.041833361,0.018053249,-0.172078556,nan,nan,nan
233.516365,1523696.706,-4460703.106,4282215.299,17.09177876,9.516948839,-15.29052817,-0.607908447,0.050107659,0.777821345,-0.151428198,1.565416667,0.88875,10.6085633,-0.02765256,0.030052388,-0.187350187,nan,nan,nan
233.588347,1523697.95,-4460702.413,4282214.186,17.59704199,9.857339641,-16.05685555,-0.605842109,0.044162021,0.779128243,-0.154803864,1.615416667,1.05875,10.1185633,-0.029834222,0.036597373,-0.193895172,nan,nan,nan
233.680807,1523699.328,-4460701.641,4282212.929,18.17850296,10.21594322,-16.90060003,-0.603476125,0.037118203,0.780693507,-0.157976119,1.695416667,1.13875,10.6585633,-0.049469176,0.039869865,-0.200440156,nan,nan,nan
233.752842,1523700.622,-4460700.914,4282211.726,18.68319725,10.57669254,-17.66377507,-0.601237776,0.030015363,0.782274415,-0.160184129,1.615416667,1.48875,10.1985633,-0.076739946,0.042051527,-0.204803479,nan,nan,nan
233.825015,1523689.795,-4460707.102,4282222.432,11.19755709,-8.003045836,-5.049537164,0.129638829,0.87729855,-0.46140466,-0.025431632,0.935416667,1.05875,10.0185633,-0.045105853,0.018053249,-0.226620095,42.445233,-71.140865,-5.8
234.198367,1523690.664,-4460707.723,4282222.04,11.06836845,-7.414653689,-6.361318477,0.127968165,0.881808888,-0.453215661,-0.025155496,1.485416667,1.14875,10.1585633,-0.05492333,0.001690788,-0.238619234,nan,nan,nan
234.276439,1523691.466,-4460708.26,4282221.58,10.9691522,-6.865029047,-7.570254076,0.12616284,0.886091418,-0.445299469,-0.02516587,1.595416667,0.84875,9.9885633,-0.064740807,-0.002672535,-0.245164218,nan,nan,nan
234.685831,1523692.257,-4460708.755,4282221.034,10.84650111,-6.344182153,-8.808416412,0.12542694,0.890300037,-0.43707627,-0.024459378,1.745416667,1.39875,10.3385633,-0.029834222,0.000599957,-0.256072526,nan,nan,nan
234.858378,1523693.114,-4460709.256,4282220.338,10.70275739,-5.750160838,-10.16513289,0.123594168,0.895143025,-0.427691159,-0.022884916,1.415416667,1.32875,10.4185633,-0.045105853,0.028961557,-0.269162496,nan,nan,nan
234.93049,1523693.88,-4460709.668,4282219.61,10.5474855,-5.245312337,-11.38634219,0.121907168,0.899545057,-0.418926957,-0.021390145,1.485416667,1.84875,10.1585633,-0.045105853,0.030052388,-0.27570748,nan,nan,nan
235.302757,1523694.708,-4460710.08,4282218.716,10.4035433,-4.703244932,-12.75144969,0.119469982,0.904357671,-0.409192657,-0.020627581,1.795416667,1.74875,10.4985633,-0.068013299,0.015871588,-0.27570748,nan,nan,nan
235.379919,1523695.455,-4460710.418,4282217.801,10.24844779,-4.183293962,-13.97441786,0.117086518,0.908582421,-0.40046832,-0.019845817,1.235416667,1.68875,10.2085633,-0.070194961,0.020234911,-0.269162496,nan,nan,nan
235.449916,1523696.269,-4460710.75,4282216.69,10.09993015,-3.613832212,-15.33276462,0.114819937,0.913369309,-0.390189711,-0.018024379,1.445416667,1.50875,10.2885633,-0.052741668,0.036597373,-0.287706619,nan,nan,nan
235.524226,1523699.135,-4460711.775,4282212.34,9.264973439,-1.657610287,-20.15247839,0.105045922,0.930961304,-0.349367956,-0.014779605,0.815416667,2.42875,10.0685633,-0.073467453,0.016962419,-0.312795727,nan,nan,nan
235.594396,1523699.824,-4460711.899,4282210.842,9.069058444,-1.175781476,-21.43416676,0.103122583,0.935221026,-0.338385725,-0.014915329,1.085416667,2.42875,10.2885633,-0.065831638,-0.014671674,-0.313886558,nan,nan,nan
235.683638,1523691.3,-4460705.657,4282223.21,-15.24829857,14.51761853,-10.64929968,0.095252685,-0.404250707,-0.456001074,-0.787128524,0.885416667,2.35875,10.0885633,-0.117100685,0.001690788,-0.307341573,42.445238,-71.140826,-5.9
235.755645,1523690.104,-4460704.518,4282222.374,-14.84604239,15.57873623,-10.85696447,0.10641545,-0.398718597,-0.458287923,-0.787192106,0.755416667,1.00875,10.6985633,-0.08328493,-0.012490012,-0.311704896,nan,nan,nan
235.83153,1523689.037,-4460703.399,4282221.594,-14.51067915,16.5086097,-11.00634833,0.116189505,-0.39400832,-0.461349918,-0.786392838,1.035416667,1.64875,10.1485633,-0.045105853,-0.021216659,-0.310614065,nan,nan,nan
235.904105,1523687.974,-4460702.189,4282220.788,-14.21787758,17.50467357,-11.09432404,0.126143452,-0.388903926,-0.46237873,-0.786795702,2.265416667,1.87875,10.3085633,-0.106192377,-0.008126689,-0.287706619,nan,nan,nan
235.981549,1523686.959,-4460700.94,4282219.996,-13.91375409,18.47819503,-11.25889073,0.134208169,-0.383197538,-0.463779545,-0.787436568,1.535416667,0.94875,10.2485633,-0.085466592,0.03332488,-0.264799172,nan,nan,nan
236.052365,1523685.892,-4460699.523,4282219.133,-13.55716415,19.50587545,-11.41020006,0.141737507,-0.376693354,-0.465656962,-0.788147316,1.255416667,1.37875,10.4785633,-0.068013299,0.056232327,-0.249527541,nan,nan,nan
236.130382,1523684.911,-4460698.111,4282218.306,-13.22675115,20.47477553,-11.56497809,0.148685222,-0.370457853,-0.466139654,-0.789536261,1.155416667,1.20875,10.3685633,-0.104010715,0.062777312,-0.230983418,nan,nan,nan
236.499,1523683.871,-4460696.501,4282217.397,-12.87214267,21.54655257,-11.76394468,0.15589555,-0.36469008,-0.46827221,-0.789568782,1.095416667,0.67875,10.3885633,-0.047287514,0.038779034,-0.23316508,nan,nan,nan
236.568432,1523682.95,-4460694.959,4282216.555,-12.57637236,22.51877981,-11.849979,0.162275064,-0.360182136,-0.468588883,-0.790164598,1.855416667,1.77875,10.4885633,-0.085466592,0.023507403,-0.200440156,nan,nan,nan
236.951141,1523681.864,-4460693.015,4282215.532,-12.18787465,23.67087118,-12.0342687,0.168692156,-0.355704828,-0.469511407,-0.790301253,1.025416667,1.09875,10.3285633,-0.05492333,0.016962419,-0.173169387,nan,nan,nan
237.020117,1523680.989,-4460691.315,4282214.668,-11.87403751,24.61802266,-12.2049887,0.1736757,-0.352365597,-0.470363682,-0.790210887,0.895416667,0.91875,10.0785633,-0.045105853,0.011508265,-0.162261079,nan,nan,nan
237.392542,1523680.124,-4460689.522,4282213.779,-11.52436224,25.59943912,-12.39548172,0.178353576,-0.348700838,-0.471663948,-0.790019524,0.655416667,0.57875,10.4885633,-0.032015883,0.023507403,-0.162261079,nan,nan,nan
237.461563,1523679.296,-4460687.683,4282212.889,-11.21498502,26.568757,-12.54995591,0.182934648,-0.345904373,-0.47342943,-0.789144889,1.165416667,0.92875,10.2985633,-0.008017606,0.001690788,-0.158988587,nan,nan,nan
237.537099,1523678.431,-4460685.633,4282211.92,-10.8993954,27.62838985,-12.68369896,0.187785593,-0.343283598,-0.475308249,-0.788019677,1.605416667,1.17875,10.4185633,-0.003654283,-0.007035859,-0.153534433,nan,nan,nan
237.60819,1523693.065,-4460703.905,4282223.174,3.471171574,-0.051747068,8.749899132,0.670157706,0.364451453,0.573682449,0.298248615,1.345416667,1.25875,10.1585633,-0.005835945,-0.017944166,-0.146989448,42.44524,-71.140781,-6.4
237.994009,1523693.337,-4460703.909,4282223.86,2.908532577,1.211563188,8.370764294,0.668200894,0.361573622,0.575560635,0.302493037,1.135416667,0.93875,10.4985633,-0.016744253,0.000599957,-0.146989448,nan,nan,nan
238.063365,1523693.546,-4460703.822,4282224.462,2.414665595,2.373981173,8.026450578,0.666531569,0.358454195,0.577466794,0.306232526,1.225416667,1.20875,10.3585633,-0.002563452,0.001690788,-0.152443602,nan,nan,nan
238.13934,1523694.221,-4460703.159,4282226.704,0.500198221,6.985889965,6.756127716,0.660687094,0.349702886,0.581389349,0.321227149,1.445416667,1.39875,10.6785633,-0.02656173,0.014780757,-0.130626986,nan,nan,nan
238.211853,1523694.257,-4460702.651,4282227.196,0.016403074,8.158591641,6.471015237,0.659322843,0.347831382,0.581849446,0.325204462,2.005416667,1.26875,10.3085633,-0.038560868,0.024598234,-0.118627848,nan,nan,nan
238.289464,1523694.259,-4460701.825,4282227.851,-0.617792465,9.754325563,6.053566196,0.657668973,0.343931424,0.583182574,0.330273801,1.825416667,1.39875,9.7885633,-0.010199268,0.023507403,-0.130626986,nan,nan,nan
238.360151,1523694.212,-4460701.082,4282228.312,-1.144475334,10.95652994,5.696547383,0.656422271,0.340848911,0.584142642,0.334229258,1.155416667,0.91875,10.1185633,-0.010199268,0.026779896,-0.134990309,nan,nan,nan
238.438646,1523698.181,-4460702.409,4282222.242,-1.735186141,13.31228086,-12.37564621,0.277849658,0.534190446,0.779020184,-0.174836175,1.356416667,1.10775,10.3115633,-0.001472622,-0.013580843,-0.145898617,42.445231,-71.140728,-7.5
238.510309,1523697.533,-4460697.432,4282217.615,-4.802489877,16.61864854,-18.05940375,0.281959,0.514160064,0.793031689,-0.1650433,1.355416667,1.30875,10.4185633,-0.012380929,0.005508695,-0.141971626,nan,nan,nan
238.583514,1523697.2,-4460696.281,4282216.364,-5.382139261,17.24654336,-19.09039667,0.282713219,0.512021273,0.794614823,-0.162772037,1.605416667,1.12875,10.2885633,-0.030925053,0.027870726,-0.09462957,nan,nan,nan
