# t [sec],r_ecef_X,r_ecef_Y,r_ecef_Z,v_ecef_X,v_ecef_Y,v_ecef_Z,q_e2b_scalar,q_e2b_i,q_e2b_j,q_e2b_k,accel_X [m/s^2],accel_Y [m/s^2],accel_Z [m/s^2],gyro_X [rad/s],gyro_Y [rad/s],gyro_Z [rad/s],gps_lat [deg],gps_long [deg],gps_alt [m]
0,1525319.726,-4462450.656,4279868.535,0,0,0,0.901797015,-0.39979036,-0.066508461,-0.150021455,0,0,0,0,0,0,0,0,0
0.095290376,1525319.47,-4462450.601,4279868.548,-0.069483898,0.004492581,0.008675939,0.901911696,-0.399773269,-0.066538197,-0.149362965,-0.724583333,0.29875,9.6885633,-0.000381791,-0.007035859,-0.018271416,42.416361,-71.128953,12.3
0.180586428,1525319.463,-4462450.6,4279868.549,-0.120907776,0.00990296,0.012635499,0.902262715,-0.39935146,-0.066439755,-0.148412144,-0.504583333,0.22875,9.6585633,-0.010199268,-0.00921752,-0.019362246,nan,nan,nan
0.266789195,1525319.453,-4462450.599,4279868.55,-0.102947695,0.001359923,0.024981026,0.902525785,-0.399096907,-0.066559921,-0.147440303,0.175416667,0.02875,10.0185633,-0.005835945,-0.005945028,-0.022634739,nan,nan,nan
0.34864288,1525319.444,-4462450.599,4279868.552,-0.111349136,0.008451861,0.044431013,0.902910165,-0.39859998,-0.06646638,-0.146470174,-0.054583333,0.27875,9.8785633,-0.01347176,-0.010308351,-0.022634739,nan,nan,nan
0.436535749,1525319.435,-4462450.598,4279868.556,-0.120470981,0.011444841,0.067019849,0.902818669,-0.399091236,-0.06688736,-0.145501606,-0.064583333,0.24875,9.9285633,0.013799009,-0.001581705,-0.022634739,nan,nan,nan
0.519163528,1525319.425,-4462450.597,4279868.561,-0.119220542,0.008204137,0.099417964,0.90282635,-0.399234814,-0.067445583,-0.14480069,0.025416667,0.28875,10.0985633,0.006163194,0.00496328,-0.020453077,nan,nan,nan
0.601805516,1525319.415,-4462450.597,4279868.569,-0.128059662,0.010376857,0.134908205,0.902818562,-0.399505215,-0.067732059,-0.143967346,-0.074583333,0.38875,10.0485633,0.008344855,-0.002672535,-0.020453077,nan,nan,nan
0.689630221,1525319.403,-4462450.596,4279868.581,-0.137068602,0.002839626,0.179233461,0.902625812,-0.400025523,-0.068522212,-0.143355959,-0.104583333,0.37875,10.1785633,0.015980671,0.009326603,-0.018271416,nan,nan,nan
0.772478784,1525319.392,-4462450.596,4279868.596,-0.178978909,0.001120944,0.208994997,0.902609436,-0.400234987,-0.068930167,-0.142677235,-0.474583333,0.40875,9.9385633,0.007254025,0.001690788,-0.018271416,nan,nan,nan
1.161286993,1525318.465,-4462450.774,4279868.715,-2.152257272,-0.352753668,0.391497369,0.908247811,-0.403817331,0.002781303,-0.109588964,-0.494583333,0.38875,9.7685633,0.004308782,-0.000381791,-0.020234911,42.416363,-71.128965,12.3
1.244107349,1525318.275,-4462450.805,4279868.749,-2.350814628,-0.371511522,0.419068358,0.908183423,-0.403997085,0.002467058,-0.109467525,-0.654583333,0.46875,9.8585633,0.005072363,0.00496328,-0.005181446,nan,nan,nan
1.627599721,1525317.373,-4462450.947,4279868.91,-3.350816395,-0.416726348,0.5560194,0.908365971,-0.404501717,0.001234758,-0.106057055,-0.984583333,0.63875,9.7885633,0.002672535,-0.001581705,-0.018816831,nan,nan,nan
2.009091546,1525316.096,-4462451.106,4279869.122,-4.218597205,-0.436359941,0.738136508,0.908535402,-0.404998313,9.07E-06,-0.102663479,-0.634583333,0.70875,9.8485633,0.002672535,-0.001581705,-0.018816831,nan,nan,nan
2.094653463,1525315.735,-4462451.144,4279869.185,-4.43854051,-0.440565692,0.795125076,0.908138519,-0.405814752,-0.000135186,-0.102950472,-0.904583333,0.90875,9.9485633,0.021434825,0.003872449,0.005726862,nan,nan,nan
2.182100765,1525318.508,-4462451.019,4279868.506,0.340609245,-0.571872239,0.059652996,0.877370956,-0.431443819,-0.145316361,-0.15152423,-1.154583333,1.02875,9.9985633,0.015980671,0.015871588,0.006817692,42.41636,-71.128965,12.3
2.254338986,1525318.538,-4462451.069,4279868.512,0.359992488,-0.587185288,0.074675,0.877143859,-0.431923972,-0.145090778,-0.151687177,-1.254583333,0.98875,9.9685633,0.010526517,-0.003763366,0.007908523,nan,nan,nan
2.328964782,1525318.565,-4462451.113,4279868.517,0.383510479,-0.593829866,0.083127571,0.877041559,-0.4318956,-0.145171258,-0.152281323,-1.124583333,0.98875,9.9085633,-0.001472622,0.009326603,0.013362677,nan,nan,nan
2.404875487,1525318.593,-4462451.157,4279868.523,0.401810892,-0.599718501,0.087282369,0.876880011,-0.432285497,-0.14474959,-0.152506563,-1.184583333,0.95875,9.8385633,0.008344855,-0.008126689,0.012271846,nan,nan,nan
2.479397287,1525318.623,-4462451.202,4279868.53,0.440139734,-0.597370946,0.089322442,0.876742219,-0.432448928,-0.144586947,-0.152988957,-0.884583333,0.96875,9.8485633,0.002890702,0.001690788,0.014453508,nan,nan,nan
2.690019268,1525318.701,-4462451.307,4279868.546,0.498553651,-0.602799587,0.095697474,0.875295106,-0.434384493,-0.145770122,-0.154659823,-1.074583333,0.96875,9.8285633,0.025798148,0.01914408,0.016635169,nan,nan,nan
3.063252368,1525318.904,-4462451.553,4279868.585,0.617698524,-0.708213264,0.083657337,0.874029912,-0.43631862,-0.146766875,-0.155426062,-1.224583333,0.83875,9.9285633,0.011181016,0.005399612,0.0035452,nan,nan,nan
3.137928954,1525318.951,-4462451.606,4279868.591,0.667828812,-0.720190568,0.081477476,0.87332715,-0.437367875,-0.147238741,-0.155980078,-0.864583333,0.88875,9.9985633,0.032343133,0.015871588,0.014453508,nan,nan,nan
3.316816697,1525318.555,-4462451.07,4279868.543,0.229592136,-0.163657342,0.365971233,0.881388193,-0.422932855,-0.144193453,-0.153267417,-1.274583333,1.12875,9.8185633,0.020343994,-0.001581705,0.016635169,42.41636,-71.128965,12.3
3.389606147,1525318.573,-4462451.083,4279868.572,0.237148104,-0.142661841,0.386254982,0.881064677,-0.423524819,-0.144043474,-0.153633465,-1.214583333,1.14875,9.6785633,0.01488984,-0.000490874,0.013362677,nan,nan,nan
3.46193899,1525318.59,-4462451.093,4279868.6,0.287202672,-0.13545569,0.398253524,0.881152307,-0.423437345,-0.143578705,-0.153806967,-0.724583333,0.89875,9.9685633,-0.005835945,-0.00921752,0.008999354,nan,nan,nan
3.538788658,1525318.612,-4462451.103,4279868.63,0.312057448,-0.133865671,0.423236348,0.881032813,-0.423831629,-0.143111675,-0.153840763,-1.104583333,1.02875,9.9785633,0.008344855,-0.011399182,0.007908523,nan,nan,nan
3.610277075,1525318.634,-4462451.113,4279868.661,0.333063828,-0.12028579,0.434502682,0.880916722,-0.423807796,-0.1431949,-0.154492401,-1.034583333,1.00875,9.7485633,-0.001472622,0.010417434,0.015544339,nan,nan,nan
3.698046407,1525318.66,-4462451.122,4279868.694,0.381631186,-0.106806762,0.445758868,0.881111378,-0.423438659,-0.142742965,-0.154812426,-0.744583333,0.93875,9.8785633,-0.01347176,-0.005945028,0.010090185,nan,nan,nan
3.770678488,1525318.692,-4462451.131,4279868.731,0.433777537,-0.097513713,0.441708654,0.881242872,-0.422908293,-0.142974416,-0.155299368,-0.734583333,0.73875,9.8085633,-0.01347176,0.011508265,0.005726862,nan,nan,nan
3.843499312,1525318.723,-4462451.138,4279868.763,0.48642166,-0.105077259,0.438452174,0.881328597,-0.422654349,-0.143105828,-0.155383164,-0.744583333,0.58875,9.9985633,-0.006926775,0.00496328,-0.000818123,nan,nan,nan
3.918688752,1525318.76,-4462451.146,4279868.796,0.549177692,-0.114890625,0.426256048,0.881398393,-0.422747315,-0.142836713,-0.154981463,-0.644583333,0.45875,9.9885633,0.001799871,-0.011399182,-0.006272277,nan,nan,nan
3.990627485,1525318.799,-4462451.154,4279868.827,0.607332653,-0.125557462,0.426089442,0.881377147,-0.423096423,-0.142500736,-0.154458027,-0.684583333,0.57875,10.0885633,0.009435686,-0.015762505,-0.007363108,nan,nan,nan
4.064513601,1525318.844,-4462451.164,4279868.858,0.638796706,-0.121399063,0.416029232,0.880988315,-0.424136107,-0.14256691,-0.153762246,-0.924583333,0.65875,9.7185633,0.032343133,-0.00921752,-0.011726431,nan,nan,nan
4.443465898,1525318.34,-4462451.143,4279868.546,0.026974475,-0.345139679,0.166027985,0.880277385,-0.436063396,-0.117303855,-0.145603042,-0.684583333,0.91875,9.9585633,0.002563452,-0.003654283,0.0035452,42.41636,-71.128968,12.3
4.514731407,1525318.342,-4462451.17,4279868.559,0.069278905,-0.36803556,0.169536601,0.88056566,-0.435694316,-0.117755754,-0.144596557,-0.404583333,0.76875,10.1485633,-0.006926775,-0.000490874,-0.030270554,nan,nan,nan
4.899347194,1525318.368,-4462451.308,4279868.623,0.120232044,-0.466954681,0.151356975,0.881317043,-0.436471433,-0.117602625,-0.137632052,-0.770583333,0.76875,9.9315633,0.006163194,-0.017944166,-0.032452216,nan,nan,nan
4.968518117,1525318.377,-4462451.345,4279868.635,0.090937972,-0.439600862,0.155462511,0.881747355,-0.435708684,-0.118086082,-0.136876666,-0.984583333,1.28875,9.3785633,-0.017835083,0.003872449,-0.025907231,nan,nan,nan
5.044934469,1525318.384,-4462451.378,4279868.646,0.105893642,-0.458681344,0.158606688,0.882468365,-0.435332179,-0.116752199,-0.134552603,-0.664583333,0.83875,9.9985633,-0.014562591,-0.058304905,-0.042269693,nan,nan,nan
5.729387597,1525314.354,-4462452.139,4279868.972,-5.703624124,-1.671984028,0.810515051,0.899607027,-0.4326666,0.030088894,-0.05100459,-0.721583333,0.77775,9.8965633,-0.002345286,-0.009872019,-0.014126259,42.416365,-71.129018,12.3
5.805708494,1525313.832,-4462452.292,4279869.046,-5.994680732,-1.790214001,0.894744189,0.899747257,-0.432786836,0.026538216,-0.049458585,-0.624583333,0.88875,11.0685633,0.003981532,0.055141496,-0.064086308,nan,nan,nan
5.877244867,1525313.403,-4462452.42,4279869.11,-6.038109201,-1.873405629,0.97513466,0.898317905,-0.435996026,0.024447636,-0.048318941,1.895416667,0.83875,11.0785633,0.099974641,0.03332488,-0.054268831,nan,nan,nan
5.948534667,1525312.973,-4462452.553,4279869.18,-6.303192663,-1.884589623,1.042985466,0.897729315,-0.437459634,0.024685623,-0.045845026,-1.184583333,1.74875,10.1885633,0.04216061,-0.038669951,-0.059722985,nan,nan,nan
6.020514439,1525312.519,-4462452.689,4279869.255,-6.516054859,-1.874045315,1.057244819,0.902179039,-0.428453866,0.024256762,-0.043725012,-0.444583333,1.28875,9.4785633,-0.279634471,-0.000490874,-0.057541324,nan,nan,nan
6.098660058,1525312.009,-4462452.836,4279869.338,-6.787480024,-1.913245188,0.976214979,0.899726128,-0.433870334,0.024799633,-0.040427805,-1.094583333,-0.21125,9.2285633,0.149062026,-0.056123244,-0.070631293,nan,nan,nan
6.472593965,1525309.475,-4462453.55,4279869.702,-7.919438304,-2.086163185,1.083567385,0.901140836,-0.431919921,0.01461667,-0.0343035,-0.511583333,0.90275,10.0245633,-0.011290099,0.035506542,-0.053178001,nan,nan,nan
6.550627963,1525308.856,-4462453.713,4279869.787,-8.033206591,-2.196899851,1.082226402,0.901506003,-0.431293552,0.012294316,-0.033491043,0.845416667,-0.10125,10.5785633,-0.016744253,0.045324019,-0.044451354,nan,nan,nan
6.6226649,1525308.274,-4462453.872,4279869.865,-8.233741227,-2.263938267,1.01389636,0.901111597,-0.43228717,0.01294404,-0.030953927,-0.524583333,-0.43125,9.6085633,0.02797981,-0.047396597,-0.055359662,nan,nan,nan
6.71171135,1525307.625,-4462454.051,4279869.945,-8.401779246,-2.346072449,0.946387076,0.896741719,-0.441514109,0.012516142,-0.027621145,0.145416667,-0.46125,9.7585633,0.258145105,-0.035397459,-0.08044877,nan,nan,nan
6.788921004,1525312.366,-4462452.547,4279869.359,-1.120463983,-1.001687688,0.893335616,0.883347759,-0.421561526,-0.170809578,-0.113166713,0.795416667,1.15875,9.6485633,0.106519626,-0.008126689,-0.06626797,42.416369,-71.129041,12.3
6.861217098,1525312.278,-4462452.625,4279869.428,-0.8735168,-0.872594167,0.823731846,0.880842767,-0.427128479,-0.172039004,-0.109908436,2.075416667,0.95875,9.2085633,0.170878642,-0.012490012,-0.055359662,nan,nan,nan
6.933924426,1525312.215,-4462452.688,4279869.488,-0.703037408,-0.797593503,0.787441387,0.881033558,-0.425652314,-0.174920757,-0.109556865,1.035416667,1.05875,9.5385633,-0.02765256,0.069322296,-0.049905508,nan,nan,nan
7.010490773,1525312.161,-4462452.749,4279869.548,-0.483975163,-0.804077611,0.770070165,0.894728272,-0.390677707,-0.180538913,-0.119322879,1.025416667,0.54875,10.7085633,-0.98976531,0.276580145,-0.036815539,nan,nan,nan
7.082006771,1525312.127,-4462452.807,4279869.604,-0.45412619,-0.895174259,0.652880556,0.894647696,-0.392456826,-0.179423201,-0.115717136,-1.524583333,-1.91125,9.6085633,0.059613902,-0.072485705,-0.068449632,nan,nan,nan
7.155652813,1525312.093,-4462452.873,4279869.652,-0.01638158,-0.773080019,0.593654057,0.894228714,-0.396631994,-0.17579767,-0.110151027,4.395416667,0.31875,10.4885633,0.121791257,-0.158661337,-0.074994616,nan,nan,nan
7.227186853,1525312.092,-4462452.928,4279869.694,0.171165932,-0.890342815,0.409623499,0.893956383,-0.400851917,-0.171256879,-0.104071167,0.775416667,-2.89125,10.2085633,0.125063749,-0.193567922,-0.08044877,nan,nan,nan
7.304009856,1525312.105,-4462452.996,4279869.725,0.367921609,-0.900514944,0.312322381,0.896925929,-0.39590532,-0.168768997,-0.101488338,1.055416667,-0.80125,9.9785633,-0.141098962,-0.084484844,-0.064086308,nan,nan,nan
7.37535257,1525312.131,-4462453.061,4279869.748,0.497566938,-0.820163451,0.266173504,0.896252163,-0.398956052,-0.167487819,-0.097539527,0.695416667,0.42875,9.2185633,0.09888381,-0.081212352,-0.068449632,nan,nan,nan
7.453975462,1525312.171,-4462453.125,4279869.769,0.720800741,-0.738320114,0.160531515,0.894998806,-0.402274915,-0.167959179,-0.094560796,1.825416667,-0.12125,9.2185633,0.102156303,-0.02230749,-0.055359662,nan,nan,nan
7.526194976,1525312.222,-4462453.178,4279869.78,0.923221645,-0.609013082,0.094415044,0.894809369,-0.401066993,-0.171318642,-0.095453575,1.955416667,0.77875,8.9485633,-0.023289237,0.097683897,-0.020453077,nan,nan,nan
7.604226557,1525312.295,-4462453.226,4279869.788,1.109736629,-0.612644904,-0.014511603,0.895883039,-0.394898486,-0.178071015,-0.098688807,1.035416667,-0.79125,9.7685633,-0.149825608,0.198040329,-0.0248164,nan,nan,nan
7.694254719,1525312.375,-4462453.271,4279869.787,1.222487821,-0.641677341,-0.065900636,0.896295171,-0.391233902,-0.183608925,-0.099391966,-0.154583333,-0.60125,10.1085633,-0.08328493,0.152225436,-0.061904647,nan,nan,nan
8.174056553,1525310.36,-4462452.715,4279869.785,0.403354638,0.025935761,-0.045904346,0.905343354,-0.375402799,-0.143059995,-0.13769527,1.108416667,-0.50425,9.8255633,-0.052741668,0.03332488,-0.048814678,42.416375,-71.129066,12.3
8.542641624,1525310.51,-4462452.706,4279869.768,1.069185403,0.222134292,-0.19667465,0.906701182,-0.375171582,-0.144952477,-0.126996185,0.575416667,-0.42125,9.7485633,0.005726862,-0.013144511,-0.056777742,nan,nan,nan
8.616041217,1525310.588,-4462452.689,4279869.753,1.140323618,0.252085755,-0.17353628,0.906950371,-0.374686588,-0.14546655,-0.126057404,-0.274583333,0.14875,10.0185633,-0.009108437,0.003872449,-0.031361385,nan,nan,nan
8.697779698,1525310.671,-4462452.671,4279869.741,1.232339612,0.319678059,-0.169742555,0.90704872,-0.374449147,-0.146142512,-0.125270995,0.225416667,0.27875,9.6085633,-0.001472622,0.009326603,-0.028088893,nan,nan,nan
8.971333716,1525311.02,-4462452.581,4279869.693,1.486853994,0.541573437,-0.106191784,0.904426642,-0.380793575,-0.148683502,-0.12207342,-0.214583333,0.33875,9.6885633,0.053068918,0.00496328,-0.018271416,nan,nan,nan
9.042706262,1525311.126,-4462452.542,4279869.685,1.573373756,0.565279288,-0.118167279,0.904487935,-0.380712211,-0.148989337,-0.121498833,-0.024583333,-0.14125,9.8285633,0.00070904,0.001690788,-0.018271416,nan,nan,nan
9.113175051,1525311.237,-4462452.502,4279869.677,1.675183613,0.606151546,-0.096497429,0.904420854,-0.380863388,-0.149558699,-0.120822991,0.195416667,0.34875,10.0685633,0.009435686,0.007144942,-0.022634739,nan,nan,nan
9.188578901,1525308.597,-4462452.483,4279870.551,-2.20090589,0.175054225,1.542018228,0.925084431,-0.366636854,-0.014754673,-0.097869884,0.245416667,0.26875,9.9385633,0.045433102,-0.012490012,-0.021543908,42.416385,-71.129086,12.2
9.259373552,1525308.429,-4462452.47,4279870.669,-2.301455424,0.189079053,1.571566204,0.925008393,-0.366820015,-0.015551429,-0.097778848,0.035416667,-0.15125,9.7185633,0.007254025,0.018053249,-0.009544769,nan,nan,nan
9.329965212,1525308.267,-4462452.456,4279870.779,-2.397815525,0.223244459,1.623761645,0.925693866,-0.365150183,-0.015675389,-0.097521757,0.045416667,0.31875,9.7685633,-0.050560007,0.00496328,-0.0106356,nan,nan,nan
9.404501303,1525308.088,-4462452.44,4279870.901,-2.526633448,0.25777616,1.689254322,0.925072229,-0.366788674,-0.016402179,-0.097151469,-0.304583333,0.41875,9.8485633,0.048705594,0.010417434,-0.013908092,nan,nan,nan
9.474850305,1525307.911,-4462452.422,4279871.019,-2.62541825,0.261585641,1.732852207,0.925134167,-0.366786029,-0.016805814,-0.096500504,-0.094583333,-0.06125,9.9685633,0.00070904,0.003872449,-0.021543908,nan,nan,nan
9.544964733,1525307.726,-4462452.403,4279871.141,-2.73985796,0.281390625,1.808090582,0.924706382,-0.367882138,-0.017645101,-0.096278194,-0.244583333,0.43875,10.1185633,0.035615625,0.016962419,-0.012817262,nan,nan,nan
9.615433272,1525307.533,-4462452.384,4279871.268,-2.846333685,0.297056432,1.864806969,0.924086245,-0.36963835,-0.017604528,-0.095510121,-0.174583333,0.22875,9.9785633,0.053068918,-0.013580843,-0.017180585,nan,nan,nan
9.70736761,1525307.335,-4462452.363,4279871.398,-2.924402534,0.309932068,1.901317031,0.924375034,-0.369056428,-0.017359903,-0.095009387,0.205416667,-0.02125,9.8385633,-0.018925914,-0.010308351,-0.011726431,nan,nan,nan
9.780718997,1525307.055,-4462452.333,4279871.58,-3.049398186,0.357234316,1.959270474,0.924891535,-0.367971881,-0.017452456,-0.094168759,0.095416667,0.26875,9.6685633,-0.024380068,-0.002672535,-0.018271416,nan,nan,nan
9.855343084,1525306.828,-4462452.307,4279871.726,-3.186403293,0.390099538,2.003138261,0.925193345,-0.36744715,-0.017441795,-0.093250474,-0.444583333,0.28875,9.6385633,-0.015653422,-0.008126689,-0.02372557,nan,nan,nan
9.925924161,1525306.602,-4462452.279,4279871.868,-3.279374899,0.401915963,2.068245753,0.92475783,-0.368732832,-0.017605036,-0.092461436,0.045416667,0.21875,10.1185633,0.038888117,-0.007035859,-0.020453077,nan,nan,nan
9.995841721,1525306.373,-4462452.251,4279872.012,-3.395735861,0.41181068,2.108330193,0.924556339,-0.369322296,-0.017699369,-0.092105106,-0.314583333,0.04875,9.8485633,0.018162333,-0.002672535,-0.009544769,nan,nan,nan
10.07141952,1525306.116,-4462452.22,4279872.172,-3.514189049,0.42659887,2.155523619,0.924450497,-0.369703651,-0.01767571,-0.091640919,-0.204583333,0.11875,9.8585633,0.010526517,-0.005945028,-0.0106356,nan,nan,nan
10.14271565,1525305.865,-4462452.189,4279872.326,-3.623150242,0.461852067,2.218677008,0.924743329,-0.369108551,-0.01779109,-0.091061139,-0.094583333,0.50875,9.8485633,-0.017835083,-0.001581705,-0.017180585,nan,nan,nan
10.22099064,1525306.256,-4462452.247,4279871.375,-2.827224446,-0.063357836,1.131573432,0.903169704,-0.413256642,-0.034709686,-0.110899377,-0.244583333,0.68875,9.8385633,0.080339687,-0.011399182,-0.017180585,42.416396,-71.129111,12.1
10.589633,1525305.199,-4462452.271,4279871.798,-3.182597977,-0.281521596,1.042976762,0.90228739,-0.41594455,-0.035478394,-0.107744515,-0.164583333,-0.14125,9.8885633,0.015980671,-0.004636031,-0.015871588,nan,nan,nan
10.66437867,1525304.961,-4462452.292,4279871.876,-3.250415941,-0.301574529,1.055826199,0.901995203,-0.41663181,-0.035223075,-0.107619345,-0.024583333,0.41875,9.9285633,0.019253163,-0.00921752,0.001363538,nan,nan,nan
10.74459463,1525304.732,-4462452.313,4279871.95,-3.351682546,-0.337602399,1.042068842,0.901858573,-0.416997676,-0.034688083,-0.107521117,-0.594583333,0.08875,9.7885633,0.009435686,-0.015762505,0.004636031,nan,nan,nan
10.81766286,1525304.454,-4462452.341,4279872.037,-3.378257232,-0.401198218,1.025743276,0.902251342,-0.416266165,-0.034117953,-0.107242533,0.445416667,-0.25125,10.1485633,-0.021107576,-0.013580843,-0.001908954,nan,nan,nan
10.88932256,1525304.212,-4462452.37,4279872.11,-3.493708022,-0.401438073,1.051658921,0.901976115,-0.416743833,-0.034814163,-0.107478558,-0.614583333,0.84875,9.7485633,0.017071502,0.01914408,-0.000818123,nan,nan,nan
10.96671421,1525303.942,-4462452.401,4279872.192,-3.63822744,-0.418345644,1.058322674,0.90063475,-0.419483332,-0.036002643,-0.107678185,-0.934583333,0.55875,9.6885633,0.081430518,0.023507403,-0.001908954,nan,nan,nan
11.03820262,1525303.683,-4462452.431,4279872.267,-3.732003801,-0.46815924,1.064452197,0.900232207,-0.420401688,-0.03625833,-0.107376574,-0.524583333,0.22875,10.1285633,0.02907064,0.000599957,-0.008453939,nan,nan,nan
11.11647807,1525303.391,-4462452.467,4279872.35,-3.770895438,-0.497267639,1.064915414,0.900774673,-0.41929865,-0.036287345,-0.107130105,0.345416667,0.25875,9.9585633,-0.030925053,0.000599957,-0.008453939,nan,nan,nan
11.49552895,1525303.595,-4462451.885,4279872.51,-1.87615029,0.063427587,1.012063378,0.892709515,-0.414195969,-0.107746419,-0.141074915,-0.240583333,0.32075,9.8965633,0.023616486,0.03223405,-0.018271416,42.416411,-71.12914,12
11.56777546,1525303.449,-4462451.88,4279872.589,-1.893907905,0.062751649,1.018439609,0.893255602,-0.413127952,-0.108228686,-0.140379044,-0.864583333,0.57875,9.7585633,-0.02656173,0.006054111,-0.025907231,nan,nan,nan
11.6411483,1525303.31,-4462451.875,4279872.664,-1.859465419,0.067892185,1.027848331,0.893084042,-0.413639439,-0.109006896,-0.139358551,-0.194583333,0.52875,9.9485633,0.020343994,0.006054111,-0.031361385,nan,nan,nan
11.72828204,1525303.167,-4462451.87,4279872.743,-1.81586502,0.090299507,1.030098145,0.892630398,-0.414326878,-0.110637842,-0.13893696,-0.024583333,0.58875,9.7585633,0.02797981,0.03223405,-0.02372557,nan,nan,nan
11.80130898,1525303.016,-4462451.862,4279872.828,-1.773460675,0.093049922,1.034681233,0.89345916,-0.412343468,-0.111952348,-0.138456728,-0.194583333,0.47875,9.9385633,-0.045105853,0.027870726,-0.031361385,nan,nan,nan
11.8774943,1525302.881,-4462451.855,4279872.907,-1.742533015,0.078038259,1.031466693,0.894593139,-0.409933244,-0.112931261,-0.137493206,-0.384583333,0.23875,10.0085633,-0.062559145,0.018053249,-0.044451354,nan,nan,nan
11.94882693,1525302.756,-4462451.85,4279872.981,-1.760524797,0.070167942,1.059652925,0.894810177,-0.409656568,-0.113871412,-0.136123272,-1.024583333,0.67875,10.0185633,-0.001472622,0.008235772,-0.046633016,nan,nan,nan
12.02257838,1525302.626,-4462451.845,4279873.059,-1.703241899,0.055174394,1.051780108,0.894220474,-0.411732465,-0.113460369,-0.134062923,-0.054583333,0.07875,10.0885633,0.061795564,-0.038669951,-0.036815539,nan,nan,nan
12.09417638,1525302.505,-4462451.841,4279873.134,-1.645659755,0.051346493,1.06508972,0.894255647,-0.412365891,-0.112963149,-0.132289595,0.025416667,0.43875,10.1785633,0.019253163,-0.035397459,-0.036815539,nan,nan,nan
12.17067039,1525302.378,-4462451.837,4279873.216,-1.569468078,0.097028134,1.088186541,0.893598156,-0.414258964,-0.11329532,-0.130522093,0.425416667,0.91875,9.8485633,0.057432241,-0.015762505,-0.036815539,nan,nan,nan
12.24249109,1525302.266,-4462451.83,4279873.294,-1.50203413,0.113531696,1.08038516,0.893698273,-0.41496892,-0.112599931,-0.128161807,0.305416667,0.42875,9.8285633,0.021434825,-0.047396597,-0.048814678,nan,nan,nan
12.3210184,1525302.148,-4462451.821,4279873.379,-1.480827697,0.109105825,1.120887311,0.894604427,-0.41346086,-0.112802432,-0.126525284,-0.444583333,0.83875,10.2185633,-0.038560868,-0.010308351,-0.046633016,nan,nan,nan
12.39378781,1525302.04,-4462451.813,4279873.46,-1.484448409,0.130046039,1.138879618,0.894240175,-0.41453637,-0.113470501,-0.12497421,-0.604583333,0.85875,9.7085633,0.037797287,-0.003763366,-0.041178862,nan,nan,nan
12.47215771,1525301.924,-4462451.803,4279873.55,-1.432114502,0.126311495,1.149968063,0.893155677,-0.416881908,-0.114965378,-0.123553124,-0.024583333,0.49875,10.0985633,0.073794702,0.014780757,-0.03790637,nan,nan,nan
12.54877564,1525300.973,-4462451.259,4279874.037,-2.490082597,0.73211589,1.918758893,0.91223212,-0.3847336,-0.086093797,-0.111357416,0.295416667,0.50875,9.6585633,-0.033106714,0.007144942,-0.040088031,42.41643,-71.129168,12
12.62145293,1525300.779,-4462451.202,4279874.186,-2.563275987,0.760273613,1.985659126,0.91177054,-0.386258754,-0.086737635,-0.109340022,-0.934583333,0.78875,9.9185633,0.046523933,-0.008126689,-0.048814678,nan,nan,nan
12.70810418,1525300.592,-4462451.146,4279874.33,-2.552116396,0.804165716,2.035704807,0.911500288,-0.38696761,-0.087880392,-0.108168073,0.195416667,0.71875,9.8985633,0.026888979,0.014780757,-0.0389972,nan,nan,nan
12.78046702,1525300.372,-4462451.077,4279874.506,-2.598272214,0.865989045,2.11230527,0.911684206,-0.386046847,-0.090293519,-0.107920445,-0.464583333,1.04875,9.7885633,-0.014562591,0.050778173,-0.029179723,nan,nan,nan
12.85232996,1525300.185,-4462451.015,4279874.658,-2.635714946,0.907864394,2.16098116,0.91153811,-0.385902918,-0.092546067,-0.107761022,-0.514583333,0.78875,9.7385633,0.005072363,0.056232327,-0.028088893,nan,nan,nan
12.92577455,1525299.992,-4462450.948,4279874.817,-2.682403145,0.933064831,2.206186522,0.912278537,-0.384064047,-0.093890321,-0.106898488,-0.724583333,0.59875,9.8285633,-0.047287514,0.027870726,-0.042269693,nan,nan,nan
12.99706698,1525299.8,-4462450.881,4279874.974,-2.738103539,0.917493539,2.2650612,0.912182795,-0.38469277,-0.094392868,-0.104995277,-1.054583333,0.34875,10.3185633,0.023616486,-0.00921752,-0.05208717,nan,nan,nan
13.2741714,1525299.042,-4462450.627,4279875.602,-2.77496452,0.972492498,2.48567972,0.911868551,-0.387100558,-0.094683439,-0.098407068,-0.314583333,0.54875,10.1785633,0.021434825,-0.017944166,-0.042269693,nan,nan,nan
13.95943562,1525296.259,-4462450.183,4279876.695,-4.290926976,0.68488161,2.484130331,0.908176453,-0.406721708,-0.069368628,-0.070576036,-0.414583333,0.67075,9.9135633,0.014017176,0.013253594,-0.040088031,42.416463,-71.129218,11.9
14.03083563,1525295.883,-4462450.123,4279876.913,-4.417394663,0.723848285,2.582930193,0.906503879,-0.410595395,-0.069154997,-0.069855031,-0.834583333,1.50875,9.9385633,0.096702149,-0.014671674,-0.004090615,nan,nan,nan
14.10075235,1525295.576,-4462450.072,4279877.092,-4.530115515,0.729388423,2.672630116,0.906106404,-0.411224445,-0.070235457,-0.07023262,-1.074583333,1.48875,10.2685633,0.022525656,0.03223405,-0.000818123,nan,nan,nan
14.17854698,1525295.223,-4462450.016,4279877.3,-4.650284663,0.74717327,2.73008561,0.905600018,-0.411805954,-0.072185006,-0.071370788,-0.954583333,1.17875,9.8085633,0.020343994,0.057323158,0.007908523,nan,nan,nan
14.24966766,1525294.891,-4462449.962,4279877.495,-4.75233767,0.751809437,2.772280377,0.905977611,-0.410565252,-0.073479471,-0.072398278,-0.904583333,0.96875,9.8485633,-0.035288376,0.04641485,0.007908523,nan,nan,nan
14.32851834,1525294.517,-4462449.903,4279877.714,-4.748977001,0.715063788,2.82453966,0.903847122,-0.415115011,-0.073917889,-0.072636451,0.395416667,0.54875,10.5685633,0.127245411,0.008235772,0.013362677,nan,nan,nan
14.40048853,1525294.176,-4462449.852,4279877.916,-4.798194884,0.646713418,2.878462223,0.903665483,-0.415392839,-0.07380312,-0.073420599,-0.424583333,0.45875,10.8385633,0.007254025,0.006054111,0.022089323,nan,nan,nan
14.47917946,1525293.8,-4462449.801,4279878.142,-4.82503843,0.632578529,2.94056737,0.902412407,-0.418287534,-0.07251363,-0.073682836,0.055416667,0.96875,10.3585633,0.077067195,-0.029943305,0.027543477,nan,nan,nan
14.55051513,1525293.453,-4462449.755,4279878.354,-4.887386394,0.651286647,2.965447734,0.902156318,-0.419332678,-0.069980697,-0.073326567,-0.314583333,1.00875,9.6385633,0.024707317,-0.069213213,0.023180154,nan,nan,nan
14.93455903,1525291.624,-4462449.512,4279879.463,-5.272046277,0.548837906,3.194668032,0.911856501,-0.399432098,-0.052052721,-0.079134288,-0.542583333,0.90275,10.1765633,-0.126918162,-0.069213213,0.056995908,nan,nan,nan
15.00941715,1525293.011,-4462449.667,4279878.324,-2.659870507,-0.130557658,1.570459936,0.882683267,-0.442410268,-0.110947303,-0.113287693,0.925416667,-0.32125,9.6685633,-0.036379207,-0.074667367,0.08644834,42.416483,-71.129253,11.8
15.08060587,1525292.807,-4462449.677,4279878.444,-2.681510869,-0.213790667,1.490288449,0.880863954,-0.445492542,-0.109338974,-0.116876341,-0.944583333,-0.35125,9.8585633,0.077067195,0.000599957,0.115900771,nan,nan,nan
15.45420504,1525291.806,-4462449.757,4279879,-2.613293815,-0.399917606,1.439958702,0.871879224,-0.463600627,-0.082014184,-0.134813765,-0.407583333,0.74575,10.0795633,0.079248856,-0.09212066,0.166078987,nan,nan,nan
15.74342112,1525291.076,-4462449.868,4279879.402,-2.746702227,-0.809317788,0.953178045,0.869213633,-0.461153009,-0.069037721,-0.164436483,-0.904583333,-0.69125,9.7485633,-0.036379207,0.021325742,0.229347172,nan,nan,nan
15.81535394,1525290.851,-4462449.935,4279879.48,-2.834128274,-0.919755662,0.819783309,0.868322896,-0.460291631,-0.06412358,-0.173306465,-1.514583333,-0.44125,9.5485633,-0.042924191,0.000599957,0.245709634,nan,nan,nan
15.89163233,1525290.635,-4462450.005,4279879.543,-2.931044487,-1.030626225,0.720396491,0.865983502,-0.46262817,-0.058441766,-0.180644155,-1.734583333,-0.18125,9.7585633,0.043251441,-0.047396597,0.250072957,nan,nan,nan
15.96386151,1525290.424,-4462450.079,4279879.595,-2.966850738,-1.140454898,0.636650747,0.863703982,-0.464613233,-0.052985887,-0.187995938,-1.004583333,-0.24125,10.1085633,0.037797287,-0.043033274,0.262072095,nan,nan,nan
16.04234762,1525289.138,-4462449.223,4279880.05,-4.487454672,-0.459584671,1.50270817,0.88325221,-0.429923537,-0.007273236,-0.187025096,-1.224583333,-1.22125,10.3185633,0.058523071,-0.06484989,0.277343726,42.416505,-71.129296,11.7
16.11400657,1525288.792,-4462449.259,4279880.166,-4.622062592,-0.584392137,1.390080094,0.8807833,-0.430933263,-0.001379653,-0.196253405,-1.534583333,-1.01125,9.7585633,0.020343994,-0.03648829,0.289342865,nan,nan,nan
16.1872463,1525288.454,-4462449.301,4279880.267,-4.667728393,-0.702152006,1.265574693,0.878525056,-0.431456413,0.0045191,-0.204984554,-0.534583333,-1.53125,9.7985633,0.007254025,-0.041942444,0.292615357,nan,nan,nan
16.25860601,1525288.12,-4462449.351,4279880.358,-4.761748712,-0.74560667,1.175155916,0.876778498,-0.430229457,0.010083159,-0.214616891,-0.724583333,-0.38125,9.1985633,-0.039651699,-0.013580843,0.313341142,nan,nan,nan
16.33548951,1525287.756,-4462449.409,4279880.448,-4.857830423,-0.80643521,1.082033197,0.87371885,-0.430350966,0.014804533,-0.226261449,-0.734583333,-0.48125,9.3785633,0.013799009,0.021325742,0.337339419,nan,nan,nan
16.40774394,1525287.405,-4462449.467,4279880.526,-4.965213583,-0.910478197,1.010191618,0.870091662,-0.431917859,0.020304816,-0.236590738,-1.164583333,-0.53125,9.9685633,0.050887256,-0.021216659,0.337339419,nan,nan,nan
16.48657249,1525287.013,-4462449.539,4279880.606,-5.125224646,-1.027026478,0.912782696,0.866555695,-0.432351428,0.027562143,-0.24777772,-1.714583333,-0.43125,9.7585633,0.010526517,-0.041942444,0.347156897,nan,nan,nan
16.55777563,1525286.646,-4462449.612,4279880.671,-5.224729595,-1.160878122,0.860746043,0.862626982,-0.433852565,0.033614514,-0.25790833,-1.164583333,-0.49125,10.4885633,0.049796425,-0.03757912,0.344975235,nan,nan,nan
16.63651256,1525286.235,-4462449.703,4279880.739,-5.361476262,-1.275142818,0.788836717,0.858467754,-0.434725546,0.039739925,-0.269197982,-1.324583333,-0.19125,9.9985633,0.034524794,-0.019034997,0.341702743,nan,nan,nan
16.71838265,1525285.85,-4462449.795,4279880.796,-5.450575275,-1.366996109,0.718360604,0.856177301,-0.432130474,0.045911629,-0.27949205,-0.834583333,-0.34125,9.9085633,-0.06910413,-0.005945028,0.340611912,nan,nan,nan
16.79468105,1525285.379,-4462449.913,4279880.858,-5.629726732,-1.465024554,0.588846334,0.852169568,-0.430923244,0.05240889,-0.29217374,-1.644583333,-0.24125,9.3385633,-0.012380929,0.001690788,0.343884404,nan,nan,nan
16.86652292,1525284.975,-4462450.018,4279880.9,-5.736757006,-1.578290783,0.456595765,0.847659672,-0.432034543,0.059182931,-0.302186393,-1.484583333,-0.96125,9.5585633,0.039978948,-0.056123244,0.353701881,nan,nan,nan
16.93919504,1525284.558,-4462450.133,4279880.933,-5.843380027,-1.693665119,0.289968775,0.843432586,-0.43191855,0.065941816,-0.31260121,-1.624583333,-1.23125,9.2985633,0.008344855,-0.039760782,0.359156035,nan,nan,nan
17.0113191,1525284.137,-4462450.255,4279880.954,-5.903406548,-1.859500532,0.128707935,0.839913899,-0.430240395,0.072373741,-0.322800072,-1.434583333,-1.82125,9.9885633,-0.034197545,-0.020125828,0.349338558,nan,nan,nan
17.09465731,1525285.227,-4462449.33,4279881.232,-3.593300367,-0.921499527,0.689148942,0.794582528,-0.394481556,0.048813007,-0.458955553,-1.264583333,-1.31125,9.9785633,0.066158887,-0.053941582,0.354792712,42.41652,-71.129341,11.7
17.16601952,1525284.952,-4462449.401,4279881.285,-3.526753085,-0.989775735,0.620013948,0.787102676,-0.395801045,0.054091359,-0.469984081,-0.994583333,-1.21125,10.0185633,0.055250579,-0.021216659,0.371155174,nan,nan,nan
17.23847661,1525284.696,-4462449.472,4279881.329,-3.483487532,-1.03235801,0.59036662,0.779405681,-0.397240761,0.05839412,-0.480953937,-0.724583333,-0.57125,10.0785633,0.075976364,-0.003763366,0.383154312,nan,nan,nan
17.31059346,1525284.445,-4462449.547,4279881.372,-3.453953123,-1.05342335,0.581218707,0.771544569,-0.398384962,0.063278098,-0.491939308,-0.494583333,-0.12125,10.0185633,0.063977225,-0.012490012,0.39406262,nan,nan,nan
17.38873778,1525284.175,-4462449.629,4279881.418,-3.457788997,-1.132026596,0.494929367,0.764592541,-0.394505416,0.068700545,-0.505018771,-1.704583333,-0.37125,9.7085633,-0.052741668,0.063868142,0.40715259,nan,nan,nan
17.77394884,1525282.877,-4462450.054,4279881.603,-3.224800374,-1.416545261,0.114393151,0.719663199,-0.399441455,0.090262178,-0.560699691,-1.220583333,-0.81825,9.7895633,0.077067195,-0.000490874,0.391880959,nan,nan,nan
17.84895921,1525282.604,-4462450.174,4279881.613,-3.220656623,-1.495718873,0.011212669,0.709507296,-0.399570275,0.096205707,-0.572439913,-1.754583333,0.04875,9.6085633,0.044342271,-0.013580843,0.389699297,nan,nan,nan
17.9205752,1525282.374,-4462450.281,4279881.614,-3.159563395,-1.591215298,-0.052218107,0.70055841,-0.400415269,0.100569305,-0.582040671,-1.574583333,-0.43125,10.3585633,0.072703872,-0.016853336,0.37988182,nan,nan,nan
17.99380888,1525282.141,-4462450.398,4279881.61,-3.18717916,-1.71502473,-0.214577043,0.693420739,-0.397265294,0.106669934,-0.591582193,-3.004583333,0.17875,9.3285633,-0.052741668,0.018053249,0.370064343,nan,nan,nan
18.06554058,1525281.914,-4462450.52,4279881.595,-3.135219758,-1.748714962,-0.259115416,0.684655984,-0.398678958,0.109810164,-0.600202466,-0.834583333,-0.12125,9.9085633,0.09888381,-0.014671674,0.343884404,nan,nan,nan
18.14741872,1525280.753,-4462450.138,4279881.818,-4.334266897,-1.381594478,0.334293575,0.70766631,-0.362425805,0.123623989,-0.593778611,-0.764583333,-0.33125,9.8885633,0.018162333,-0.005945028,0.334066927,42.416528,-71.129396,11.6
18.51750457,1525279.125,-4462450.657,4279881.943,-4.349233949,-1.764564679,0.273451787,0.661195283,-0.358176478,0.144548532,-0.643145497,-1.394583333,-0.03125,10.3385633,0.040088031,-0.00070904,0.376500245,nan,nan,nan
18.59386301,1525278.793,-4462450.791,4279881.964,-4.308081736,-1.742655419,0.234727434,0.653003596,-0.35541847,0.147702933,-0.652263642,-0.544583333,-0.44125,9.3885633,0.010526517,0.04641485,0.336248589,nan,nan,nan
18.66568416,1525278.485,-4462450.916,4279881.981,-4.280988806,-1.790722793,0.165393663,0.644943638,-0.353808035,0.151020253,-0.660348742,-1.624583333,-0.29125,9.6485633,0.023616486,0.015871588,0.334066927,nan,nan,nan
18.75389431,1525278.149,-4462451.056,4279881.994,-4.25480071,-1.839110173,0.143940452,0.636759594,-0.349755107,0.156090514,-0.669211727,-1.144583333,-0.02125,10.0885633,-0.044015022,0.03332488,0.344975235,nan,nan,nan
18.8261482,1525277.8,-4462451.207,4279882.006,-4.250747136,-1.931677384,0.107021432,0.6267551,-0.349362108,0.159414142,-0.678020128,-1.684583333,0.27875,10.2185633,0.058523071,-0.008126689,0.329703604,nan,nan,nan
18.90215902,1525277.475,-4462451.355,4279882.014,-4.23395033,-2.054098424,0.028558187,0.618216169,-0.347868822,0.162226116,-0.685914528,-2.404583333,0.15875,10.1685633,0.036706456,0.016962419,0.313341142,nan,nan,nan
18.97422675,1525277.171,-4462451.502,4279882.016,-4.218639739,-2.17967259,-0.055335894,0.611097813,-0.344341924,0.165121939,-0.693341798,-2.614583333,0.24875,10.1585633,-0.01347176,0.057323158,0.307886988,nan,nan,nan
19.04775784,1525276.862,-4462451.662,4279882.012,-4.199483011,-2.288383673,-0.114018237,0.602831463,-0.344295892,0.167449317,-0.700010923,-2.204583333,0.26875,10.2485633,0.062886395,-0.012490012,0.289342865,nan,nan,nan
19.11864878,1525276.562,-4462451.825,4279882.004,-4.152295028,-2.20260387,-0.01965842,0.5946538,-0.347033129,0.172252551,-0.704474219,1.205416667,-0.22125,10.1185633,0.051978087,-0.130299737,0.269707911,nan,nan,nan
19.20128752,1525276.452,-4462452.06,4279881.183,-3.648489754,-2.646256713,-0.984326433,0.585092834,-0.384378192,0.182263186,-0.690434583,-0.514583333,-0.19125,10.8985633,-0.023289237,-0.101938137,0.252254618,42.416521,-71.129453,11.5
19.27353295,1525276.168,-4462452.266,4279881.107,-3.580222616,-2.740138752,-1.065199383,0.577379744,-0.384822919,0.186000232,-0.695663616,-1.294583333,0.05875,10.2285633,0.041069779,-0.048487428,0.250072957,nan,nan,nan
19.34576267,1525275.909,-4462452.464,4279881.03,-3.566063233,-2.901711759,-1.242840686,0.571110886,-0.384167082,0.188856794,-0.700414963,-2.974583333,0.76875,9.8385633,0.025798148,-0.014671674,0.230438003,nan,nan,nan
19.41774319,1525275.652,-4462452.673,4279880.94,-3.548782271,-2.983789797,-1.32607952,0.565566335,-0.384030626,0.191814002,-0.704175112,-1.254583333,0.71875,9.9085633,0.019253163,-0.033215797,0.199894741,nan,nan,nan
19.49604989,1525275.374,-4462452.906,4279880.836,-3.558423634,-3.090546792,-1.454007796,0.559981776,-0.385146761,0.193885377,-0.707453775,-1.704583333,1.07875,9.6485633,0.049796425,-0.045214936,0.162806494,nan,nan,nan
19.8794548,1525274.045,-4462454.061,4279880.293,-3.258442621,-3.612088971,-1.965260032,0.543528831,-0.378283205,0.195279352,-0.723425326,-1.544583333,0.31675,10.1435633,0.024707317,0.037688204,0.120264094,nan,nan,nan
19.95580474,1525273.764,-4462454.372,4279880.124,-3.253052646,-3.779102017,-2.093529963,0.541082645,-0.375491809,0.19772852,-0.726043322,-2.014583333,1.33875,10.1685633,-0.042924191,0.027870726,0.108264955,nan,nan,nan
20.02738495,1525273.532,-4462454.643,4279879.974,-3.235959935,-3.888954777,-2.140696014,0.538241454,-0.375891828,0.196874109,-0.728177215,-1.164583333,1.11875,10.4785633,0.065068056,0.011508265,0.078812524,nan,nan,nan
20.10017602,1525273.296,-4462454.926,4279879.818,-3.221287908,-3.998692175,-2.232088485,0.536789831,-0.37546853,0.198439431,-0.729041736,-1.594583333,1.12875,10.0585633,-0.017835083,-0.013580843,0.060268401,nan,nan,nan
20.17247661,1525273.064,-4462455.214,4279879.657,-3.221813386,-4.077592461,-2.307667998,0.534894617,-0.376752536,0.199731164,-0.729419453,-1.134583333,1.19875,9.8385633,0.01488984,-0.051759921,0.050450924,nan,nan,nan
20.25510123,1525272.433,-4462455.051,4279879.4,-3.639897813,-3.916661345,-2.283312286,0.534666398,-0.361998356,0.209768911,-0.734224787,-1.664583333,1.07875,10.1285633,-0.028743391,-0.020125828,0.058086739,42.4165,-71.129511,11.4
20.32741115,1525272.151,-4462455.356,4279879.223,-3.666264833,-4.072154943,-2.429965018,0.533008661,-0.363112169,0.210934831,-0.734545994,-2.364583333,1.50875,9.8385633,0.010526517,-0.043033274,0.040633447,nan,nan,nan
20.39978087,1525271.884,-4462455.651,4279879.046,-3.679880319,-4.140907012,-2.446852804,0.532294287,-0.36191608,0.210872595,-0.735671321,-0.434583333,1.14875,10.2285633,-0.002563452,0.03223405,0.037360954,nan,nan,nan
20.47123525,1525271.622,-4462455.946,4279878.872,-3.690379641,-4.219586078,-2.497563401,0.530542002,-0.362862649,0.209800727,-0.73677645,-0.924583333,1.12875,10.0385633,0.060704733,-0.002672535,0.036270124,nan,nan,nan
20.55018229,1525271.331,-4462456.28,4279878.675,-3.706117069,-4.333533325,-2.56642372,0.529662916,-0.362240101,0.210325718,-0.737565182,-1.244583333,1.32875,10.1485633,-0.005835945,0.007144942,0.035179293,nan,nan,nan
20.62204378,1525271.064,-4462456.591,4279878.49,-3.711664806,-4.416707555,-2.554748496,0.528016117,-0.363646916,0.209252454,-0.738358525,-0.304583333,1.18875,10.6585633,0.063977225,-0.014671674,0.026452646,nan,nan,nan
20.71072174,1525270.773,-4462456.937,4279878.29,-3.744329662,-4.580687604,-2.697646173,0.527261601,-0.364786443,0.210258877,-0.738049633,-2.324583333,1.73875,9.9085633,0.001799871,-0.041942444,0.013362677,nan,nan,nan
20.78227332,1525270.466,-4462457.313,4279878.069,-3.726121793,-4.740765917,-2.745767723,0.526442338,-0.365186512,0.20984477,-0.738554296,-1.374583333,1.18875,10.8185633,0.022525656,-0.001581705,0.015544339,nan,nan,nan
20.85832885,1525270.182,-4462457.674,4279877.86,-3.743955568,-4.867828693,-2.754548407,0.525710061,-0.36648201,0.21008665,-0.738365403,-0.754583333,1.56875,10.7785633,0.019253163,-0.034306628,0.006817692,nan,nan,nan
21.13197095,1525269.16,-4462459.003,4279877.108,-3.842451101,-5.252482581,-3.116622188,0.528189632,-0.357869003,0.213321371,-0.739891535,-1.464583333,1.51875,9.7785633,-0.05492333,0.042051527,0.014453508,nan,nan,nan
21.2040261,1525268.882,-4462459.384,4279876.882,-3.886306035,-5.312827246,-3.136136685,0.526628755,-0.361072832,0.211635952,-0.739931611,-0.364583333,1.46875,9.9985633,0.096702149,-0.049578259,-0.002999785,nan,nan,nan
21.28148891,1525268.079,-4462458.628,4279876.655,-4.603709179,-4.51493188,-2.603222775,0.551003063,-0.326444482,0.195642682,-0.742666525,-1.474583333,1.77875,9.9885633,0.073794702,0.022416573,0.010090185,42.41647,-71.129575,10.9
21.35281933,1525267.727,-4462458.973,4279876.456,-4.688057461,-4.597088752,-2.626384576,0.550931974,-0.326430612,0.195434752,-0.742780098,-1.274583333,1.76875,9.9685633,0.005072363,0.003872449,0.001363538,nan,nan,nan
21.42437183,1525267.39,-4462459.304,4279876.267,-4.76022989,-4.630885083,-2.628237236,0.550974009,-0.326477333,0.195209956,-0.742787497,-0.684583333,1.50875,9.7985633,0.005072363,0.002781618,-0.002999785,nan,nan,nan
21.60236369,1525266.542,-4462460.128,4279875.799,-4.929835317,-4.592897331,-2.602526743,0.55244316,-0.322874479,0.195452862,-0.743207108,-0.104583333,1.25875,9.4885633,-0.028743391,0.03332488,-0.000818123,nan,nan,nan
21.70630169,1525266.194,-4462460.453,4279875.615,-5.001433388,-4.629738136,-2.633351859,0.552463179,-0.322847838,0.194910843,-0.743346133,-1.064583333,1.45875,9.5385633,0.011617348,0.010417434,-0.002999785,nan,nan,nan
21.77768074,1525265.671,-4462460.937,4279875.34,-5.075608736,-4.786409643,-2.689186291,0.552660421,-0.321110935,0.193943204,-0.744204448,-1.874583333,1.47875,10.1785633,-0.002563452,0.040960696,0.006817692,nan,nan,nan
21.85447241,1525265.281,-4462461.305,4279875.133,-5.141466125,-4.857496283,-2.669702658,0.552350317,-0.320955204,0.191836685,-0.745047362,-0.944583333,1.48875,10.3285633,0.045433102,0.038779034,0.001363538,nan,nan,nan
21.92605482,1525264.913,-4462461.653,4279874.942,-5.208362202,-4.872147426,-2.633700925,0.551649422,-0.322146962,0.189579295,-0.745629896,-0.284583333,1.38875,10.0185633,0.074885533,0.011508265,-0.002999785,nan,nan,nan
22.3058688,1525263.846,-4462463.098,4279873.001,-4.07749807,-5.051446713,-3.590172539,0.509911097,-0.388662684,0.146916066,-0.753224841,-0.953583333,1.51175,9.9085633,0.203603566,-0.03757912,-0.0248164,42.416428,-71.129641,10.6
22.3777909,1525263.531,-4462463.487,4279872.724,-4.048188422,-5.130015567,-3.658116109,0.505479656,-0.395825035,0.138544797,-0.754067768,-1.414583333,2.03875,9.7985633,0.306141659,-0.03757912,-0.013908092,nan,nan,nan
22.45772345,1525263.209,-4462463.896,4279872.433,-4.004288748,-5.246035086,-3.7563294,0.498892717,-0.408006336,0.127807585,-0.753858149,-1.964583333,2.24875,9.8685633,0.422860553,-0.119391429,-0.026998062,nan,nan,nan
22.83986071,1525261.718,-4462465.849,4279871.034,-3.532927653,-5.460558895,-4.056087792,0.502129915,-0.405777643,0.131686132,-0.752242524,-1.108583333,1.64175,9.8975633,-0.029834222,-0.002672535,-0.007363108,nan,nan,nan
23.21396282,1525260.362,-4462467.945,4279869.477,-3.486151644,-5.316040213,-3.956837581,0.495118941,-0.416467159,0.117095707,-0.753459312,0.495416667,2.29875,9.4685633,0.100847306,-0.005945028,-0.007472191,nan,nan,nan
23.28309804,1525260.12,-4462468.314,4279869.203,-3.487364611,-5.34121994,-3.950787743,0.495477379,-0.416435844,0.117554275,-0.753169535,-0.074583333,3.09875,9.6285633,-0.015653422,-0.008126689,-0.006272277,nan,nan,nan
23.3640018,1525260.005,-4462468.845,4279868.271,-3.148691729,-5.878155902,-4.824742357,0.49247788,-0.447157701,0.125212838,-0.736095968,-1.604583333,3.68875,9.8885633,-0.053832499,-0.05066909,-0.006272277,42.416371,-71.129708,10.6
23.43398452,1525259.768,-4462469.288,4279867.908,-3.098756871,-6.012773159,-4.908917399,0.493385808,-0.44578326,0.12595786,-0.736194504,-1.344583333,3.06875,10.1285633,-0.042924191,0.021325742,-0.002999785,nan,nan,nan
23.51046654,1525259.53,-4462469.75,4279867.531,-3.033717049,-6.103384672,-5.012994167,0.492972637,-0.447179546,0.125710118,-0.735666636,-1.194583333,2.52875,9.7185633,0.025798148,-0.031034136,-0.006272277,nan,nan,nan
23.58208024,1525259.313,-4462470.186,4279867.172,-3.076463492,-6.160202286,-5.035108118,0.492445017,-0.448271006,0.124175642,-0.735616354,0.045416667,3.83875,9.2985633,0.053068918,-0.003763366,-0.012817262,nan,nan,nan
23.66097537,1525259.07,-4462470.673,4279866.774,-3.020452815,-6.212552347,-5.102055457,0.493355246,-0.447402704,0.124787892,-0.735431441,-0.444583333,2.57875,9.5985633,-0.033106714,0.009326603,-0.009544769,nan,nan,nan
23.74249199,1525258.854,-4462471.117,4279866.41,-3.017757045,-6.273033527,-5.150274177,0.493518523,-0.447635638,0.123740336,-0.735357147,-0.354583333,3.24875,9.4585633,0.022525656,0.009326603,-0.018271416,nan,nan,nan
23.8145863,1525258.606,-4462471.632,4279865.987,-2.958323176,-6.362449768,-5.186012371,0.493996414,-0.446975854,0.123537611,-0.735471677,-0.404583333,2.86875,10.1085633,-0.009108437,0.016962419,-0.007363108,nan,nan,nan
23.88454011,1525258.4,-4462472.076,4279865.625,-3.009036234,-6.437465511,-5.186507836,0.493641185,-0.448234767,0.121582131,-0.735269855,0.085416667,4.17875,9.5685633,0.062886395,-0.002672535,-0.0248164,nan,nan,nan
23.96064755,1525258.17,-4462472.567,4279865.229,-2.923212089,-6.486270781,-5.200470083,0.494544039,-0.44694976,0.122073963,-0.735363892,0.005416667,2.41875,10.1785633,-0.036379207,0.022416573,-0.006272277,nan,nan,nan
24.0313158,1525257.964,-4462473.025,4279864.862,-2.89286207,-6.528270643,-5.278390663,0.49530604,-0.446402842,0.122428181,-0.735124323,-0.624583333,2.70875,9.2585633,-0.025470899,0.006054111,-0.012817262,nan,nan,nan
24.1096012,1525257.737,-4462473.536,4279864.449,-2.881263702,-6.61580229,-5.331802032,0.496631564,-0.444686066,0.122827971,-0.735203838,-0.594583333,3.28875,9.6785633,-0.044015022,0.03223405,-0.013908092,nan,nan,nan
24.18172459,1525257.529,-4462474.013,4279864.064,-2.814283261,-6.721633325,-5.41896008,0.496803683,-0.444215245,0.12204891,-0.735501857,-1.334583333,2.62875,10.0185633,0.008344855,0.024598234,-0.007363108,nan,nan,nan
24.25428013,1525257.325,-4462474.501,4279863.671,-2.827123067,-6.798356868,-5.475560577,0.496534525,-0.445210375,0.121453619,-0.73518039,-0.644583333,3.47875,9.4185633,0.02797981,-0.016853336,-0.009544769,nan,nan,nan
24.32594971,1525257.123,-4462474.988,4279863.279,-2.741179856,-6.815873213,-5.516976037,0.497380313,-0.444242067,0.122308074,-0.73505275,-0.124583333,2.00875,9.7585633,-0.041833361,0.009326603,-0.005181446,nan,nan,nan
24.40261605,1525254.848,-4462477.057,4279861.678,-5.795236074,-9.305707452,-7.416333713,0.450416857,-0.404100472,0.28965215,-0.741572044,-1.664583333,3.47875,8.9185633,0.110882949,0.03332488,-0.0248164,42.41629,-71.1298,10.7
24.47533038,1525254.395,-4462477.784,4279861.099,-5.981159207,-9.534774382,-7.617996115,0.452456232,-0.401480564,0.289833507,-0.741682718,-0.764583333,3.93875,9.7885633,-0.053832499,0.063868142,-0.016089754,nan,nan,nan
24.54748119,1525253.963,-4462478.472,4279860.549,-6.047118391,-9.579527449,-7.741612967,0.452803498,-0.402060383,0.291428512,-0.740530798,0.545416667,1.53875,8.8985633,-0.038560868,-0.041942444,-0.008453939,nan,nan,nan
24.61757199,1525253.539,-4462479.145,4279860.005,-6.167535033,-9.723233389,-7.892641217,0.452500815,-0.403569335,0.291320617,-0.739937229,-0.214583333,2.86875,9.5485633,0.020343994,-0.039760782,-0.014998923,nan,nan,nan
24.7004333,1525253.106,-4462479.827,4279859.451,-6.289651407,-9.903250032,-8.103542447,0.452949367,-0.403421977,0.292863216,-0.739133761,-1.144583333,3.17875,9.5185633,-0.046196684,-0.02230749,-0.000818123,nan,nan,nan
24.77402531,1525252.564,-4462480.68,4279858.754,-6.488283596,-10.20674661,-8.333271698,0.453288164,-0.404032287,0.293193193,-0.738461579,-1.104583333,4.03875,10.2785633,-0.006926775,-0.017944166,-0.013908092,nan,nan,nan
24.94657259,1525251.444,-4462482.442,4279857.315,-6.633735469,-10.50033901,-8.470614063,0.45569521,-0.402404785,0.299944087,-0.735150195,0.925416667,1.81875,10.2485633,-0.088739084,-0.028852474,-0.000818123,nan,nan,nan
25.01958869,1525250.962,-4462483.205,4279856.7,-6.757561144,-10.644558,-8.592484858,0.455125061,-0.403761112,0.298920494,-0.735176634,0.315416667,2.62875,9.7885633,0.044342271,-0.019034997,-0.0106356,nan,nan,nan
25.08909439,1525250.49,-4462483.949,4279856.099,-6.959140703,-10.83549439,-8.759725839,0.454732247,-0.404622994,0.298076869,-0.735288377,-0.304583333,4.08875,9.6485633,0.034524794,-0.00921752,-0.007363108,nan,nan,nan
25.16540283,1525249.959,-4462484.776,4279855.431,-7.068942175,-10.98456176,-8.886956647,0.455035448,-0.404139847,0.296994622,-0.735804267,0.285416667,2.42875,9.8385633,0.015980671,0.030052388,-0.007363108,nan,nan,nan
25.33857005,1525248.737,-4462486.675,4279853.894,-7.326847277,-11.56968859,-9.509990701,0.459577309,-0.396813344,0.293160322,-0.738501789,-2.014583333,3.20875,10.0085633,-0.017835083,0.110773866,-0.017180585,nan,nan,nan
25.42162881,1525249.798,-4462486.143,4279854.136,-4.943220347,-10.10588295,-7.773807254,0.441746664,-0.398861186,0.181409065,-0.782854004,-0.764583333,3.03875,10.1085633,0.038888117,-0.010308351,-0.0106356,42.416198,-71.129893,10.7
25.49074249,1525249.428,-4462486.899,4279853.555,-4.977558355,-10.22196706,-7.891135968,0.442674424,-0.396768242,0.179878797,-0.783746091,-1.184583333,3.33875,9.3285633,0.001799871,0.075867281,-0.014998923,nan,nan,nan
25.66774468,1525248.548,-4462488.707,4279852.159,-5.016807873,-10.41332988,-7.956125591,0.442072996,-0.399569089,0.178090987,-0.783070629,-0.114583333,2.96875,9.8785633,0.031252302,-0.020125828,-0.011726431,nan,nan,nan
25.74939745,1525248.188,-4462489.453,4279851.589,-4.995313612,-10.49601752,-8.018875192,0.442615057,-0.398602238,0.178032757,-0.783270391,-0.674583333,2.58875,9.8385633,-0.015653422,0.026779896,-0.005181446,nan,nan,nan
26.02715843,1525246.752,-4462492.471,4279849.283,-5.012854017,-10.76579636,-8.12512306,0.44369621,-0.400353414,0.179534017,-0.781420728,-0.074583333,2.79875,9.8485633,-0.008017606,-0.017944166,-0.009544769,nan,nan,nan
26.09834132,1525246.393,-4462493.241,4279848.702,-4.972453968,-10.81114502,-8.149847831,0.443883879,-0.400836183,0.179170749,-0.781149985,-0.024583333,2.08875,9.9685633,0.010526517,-0.008126689,-0.013908092,nan,nan,nan
26.16834438,1525246.045,-4462493.997,4279848.132,-4.973443884,-10.9285178,-8.162843772,0.442965014,-0.402608591,0.176657971,-0.781332376,-0.304583333,3.15875,10.4585633,0.090157164,-0.010308351,-0.014998923,nan,nan,nan
26.23873013,1525245.694,-4462494.769,4279847.556,-4.975050209,-10.97390243,-8.165716244,0.443578853,-0.402868098,0.178239864,-0.780490646,0.385416667,2.67875,9.8685633,-0.042924191,-0.032124967,-0.007363108,nan,nan,nan
26.31754889,1525245.303,-4462495.632,4279846.913,-5.027255843,-11.08671264,-8.213689177,0.445240163,-0.401350929,0.180353237,-0.779840585,-0.294583333,3.56875,9.7285633,-0.078921607,0.007144942,-0.011726431,nan,nan,nan
26.38956408,1525244.94,-4462496.431,4279846.321,-5.018032091,-11.17311544,-8.294107285,0.447201896,-0.398934173,0.182293924,-0.779506842,-0.794583333,2.67875,9.6585633,-0.095284069,0.034415711,-0.012817262,nan,nan,nan
26.67393843,1525244.485,-4462495.615,4279846.384,-3.030927361,-6.81155415,-4.33247885,0.477265935,-0.336334608,-0.022946436,-0.811523087,-0.564583333,1.95875,9.8185633,-0.01347176,0.000599957,-0.029179723,42.416103,-71.129991,10.6
26.75475828,1525244.252,-4462496.137,4279846.052,-2.914666173,-6.586244857,-4.217694316,0.47809595,-0.336636064,-0.023641532,-0.810889328,-0.064583333,2.09875,9.5685633,0.011617348,-0.003763366,-0.031361385,nan,nan,nan
26.82535852,1525244.018,-4462496.666,4279845.713,-2.873558928,-6.404877275,-4.037934235,0.478718349,-0.336895937,-0.025170049,-0.810368027,0.095416667,3.50875,9.7585633,0.02907064,0.008235772,-0.031361385,nan,nan,nan
26.8956619,1525243.816,-4462497.116,4279845.429,-2.835877995,-6.241179751,-3.920393357,0.47962344,-0.33741921,-0.024581344,-0.809632874,-0.164583333,3.26875,9.3085633,-0.014562591,-0.027761643,-0.0248164,nan,nan,nan
26.97128978,1525243.602,-4462497.588,4279845.133,-2.766991614,-6.022436952,-3.752538034,0.48054375,-0.33716207,-0.025338149,-0.809170823,0.465416667,2.86875,9.7885633,0.005072363,0.010417434,-0.032452216,nan,nan,nan
27.04221664,1525243.406,-4462498.014,4279844.868,-2.670202683,-5.858208314,-3.669895519,0.481340691,-0.338466422,-0.025036299,-0.808161373,-0.694583333,2.44875,9.3985633,0.003981532,-0.044124105,-0.028088893,nan,nan,nan
27.4185427,1525242.401,-4462500.22,4279843.486,-2.244788329,-4.952203581,-2.987001215,0.482369641,-0.334695455,-0.03170499,-0.80888397,-0.193583333,2.82375,9.7355633,0.017071502,0.034415711,-0.014998923,nan,nan,nan
27.48794211,1525242.245,-4462500.562,4279843.279,-2.136194362,-4.808784626,-2.877589854,0.482329945,-0.33433465,-0.033892497,-0.808968149,-0.854583333,2.63875,9.8785633,0.046523933,0.039869865,-0.019362246,nan,nan,nan
27.55803809,1525242.095,-4462500.901,4279843.077,-2.025141444,-4.666764649,-2.778660017,0.481587985,-0.335769381,-0.03754057,-0.808654835,-1.024583333,2.62875,9.7485633,0.110882949,0.014780757,-0.020453077,nan,nan,nan
27.63212103,1525241.945,-4462501.246,4279842.871,-1.93971413,-4.528226202,-2.674798163,0.481752852,-0.335561411,-0.038459796,-0.808599761,-1.024583333,3.09875,9.5185633,0.015980671,0.015871588,-0.012817262,nan,nan,nan
28.01619283,1525232.666,-4462516.503,4279829.345,-10.6307959,-22.6277888,-13.55366893,0.650263137,-0.48702696,0.454216303,-0.365581923,0.155416667,1.97875,9.5385633,0.021216659,0.004854197,-0.024489151,42.415891,-71.130211,10.7
28.08820023,1525231.737,-4462518.48,4279828.161,-11.21469622,-22.8264506,-14.03773532,0.65150695,-0.485728769,0.454796291,-0.364371503,-0.674583333,1.94875,9.9485633,-0.050560007,0.001690788,-0.008453939,nan,nan,nan
28.16039416,1525230.927,-4462520.129,4279827.147,-11.62399375,-22.87208547,-14.40795405,0.653175828,-0.483988645,0.455188316,-0.363207829,0.095416667,1.52875,8.1785633,-0.072376622,0.015871588,-0.0106356,nan,nan,nan
28.23456698,1525230.061,-4462521.834,4279826.073,-12.20927379,-22.98985909,-14.85497987,0.65537178,-0.481912305,0.456165209,-0.360779245,-1.474583333,2.96875,9.5285633,-0.104010715,-0.001581705,-0.025907231,nan,nan,nan
28.30698915,1525229.183,-4462523.486,4279825.005,-12.81565712,-23.08314976,-15.17083574,0.656830117,-0.481600572,0.453956399,-0.361329038,-0.144583333,3.98875,9.6185633,0.003981532,0.069322296,-0.030270554,nan,nan,nan
28.37945715,1525228.248,-4462525.17,4279823.899,-13.39759784,-23.23054605,-15.50199991,0.657431403,-0.482093802,0.45183013,-0.362241701,-0.214583333,3.32875,10.1785633,0.033433963,0.052959834,-0.02372557,nan,nan,nan
28.45079503,1525227.291,-4462526.83,4279822.791,-13.84955475,-23.38463898,-15.80774881,0.658520499,-0.481464992,0.451328718,-0.361724484,0.525416667,1.88875,9.9285633,-0.02765256,0.022416573,-0.019362246,nan,nan,nan
28.52679328,1525226.238,-4462528.608,4279821.589,-14.27479855,-23.52579576,-16.10767995,0.65826308,-0.482376494,0.450869464,-0.361551328,1.075416667,1.38875,9.5085633,0.021434825,-0.005945028,-0.017180585,nan,nan,nan
28.59754689,1525225.231,-4462530.268,4279820.453,-14.73223736,-23.71691726,-16.42137029,0.657066706,-0.48500724,0.449062006,-0.362456393,0.275416667,1.82875,10.4785633,0.095611318,0.003872449,-0.029179723,nan,nan,nan
28.88680618,1525221.113,-4462536.897,4279815.862,-16.42992035,-24.10175684,-18.03373169,0.663685979,-0.479037837,0.452895217,-0.35345381,-0.784583333,1.46875,8.9185633,-0.089829915,-0.012490012,-0.026998062,nan,nan,nan
28.95867991,1525219.771,-4462538.866,4279814.389,-17.08057825,-24.26186922,-18.36212106,0.665605439,-0.477020338,0.453121746,-0.352280684,0.215416667,3.32875,10.2385633,-0.070194961,0.021325742,-0.0106356,nan,nan,nan
29.03701919,1525225.492,-4462527.679,4279820.256,-7.171288942,-14.7209456,-6.303820844,0.684068212,-0.31161208,-0.014707492,-0.659342311,-0.524583333,3.99875,9.4785633,0.069431379,0.03332488,-0.035724708,42.415784,-71.130333,10.6
29.10950549,1525224.934,-4462528.825,4279819.766,-7.111648912,-14.48664498,-6.081496718,0.683320674,-0.311316317,-0.019226839,-0.660140391,0.605416667,1.68875,10.5285633,0.077067195,0.091138912,-0.009544769,nan,nan,nan
29.18256013,1525224.413,-4462529.886,4279819.32,-7.265347966,-14.16973933,-5.923668344,0.682422498,-0.316042733,-0.023110017,-0.658697543,1.095416667,3.89875,8.1785633,0.166515319,-0.024489151,-0.041178862,nan,nan,nan
29.25381081,1525223.896,-4462530.895,4279818.898,-7.21324539,-13.89957796,-5.766720679,0.68391774,-0.313673861,-0.02135456,-0.658338224,1.005416667,1.55875,9.6485633,-0.090920746,0.006054111,-0.020453077,nan,nan,nan
29.33155836,1525223.34,-4462531.965,4279818.454,-7.142330529,-13.53683926,-5.562100452,0.683261377,-0.316103742,-0.024279006,-0.657755916,2.035416667,1.47875,9.7385633,0.09888381,0.006054111,-0.021543908,nan,nan,nan
29.40416328,1525222.819,-4462532.953,4279818.048,-7.080533809,-13.16541014,-5.369478069,0.684432148,-0.316714474,-0.020864306,-0.656360616,2.355416667,1.58875,9.5285633,-0.059286653,-0.087757336,-0.017180585,nan,nan,nan
29.48005881,1525222.28,-4462533.957,4279817.639,-7.044834724,-12.90000242,-5.222369319,0.685032992,-0.317510765,-0.019762486,-0.655382452,0.625416667,1.65875,9.4385633,-0.009108437,-0.041942444,-0.018271416,nan,nan,nan
29.55081747,1525221.782,-4462534.867,4279817.27,-7.03286323,-12.68277622,-5.094275927,0.685650052,-0.318328541,-0.019212372,-0.654356043,0.195416667,1.88875,9.3785633,0.00070904,-0.035397459,-0.025907231,nan,nan,nan
29.93745159,1525219.134,-4462539.644,4279815.352,-7.04430284,-11.39246327,-4.239914664,0.708387563,-0.268988729,0.024536296,-0.652096692,0.682416667,2.25575,9.5075633,-0.370173426,0.006054111,-0.018271416,nan,nan,nan
30.00663706,1525218.576,-4462540.545,4279815.016,-7.101276477,-11.18265329,-4.092268705,0.714883572,-0.248786791,0.036161235,-0.652486763,-0.314583333,1.41875,9.4885633,-0.597066229,0.131499651,-0.008453939,nan,nan,nan
30.18911158,1525218.679,-4462538.672,4279811.087,-3.509371525,-4.653367163,-5.322591337,0.870955128,-0.2320708,-0.301597661,-0.310836228,1.765416667,0.84875,9.7385633,0.623573417,-0.569904542,-0.025907231,42.415671,-71.130456,10.6
30.4627236,1525217.7,-4462539.971,4279809.602,-2.378114031,-2.90239587,-5.183624172,0.865323327,-0.26046908,-0.308736602,-0.296737442,0.895416667,1.23875,9.4585633,0.233055997,-0.029943305,-0.025907231,nan,nan,nan
30.53472078,1525217.528,-4462540.18,4279809.227,-2.067753528,-2.600193276,-5.191371979,0.868456878,-0.25104228,-0.305688742,-0.29885585,-0.064583333,-0.05125,9.6685633,-0.29163361,-0.007035859,-0.033543047,nan,nan,nan
30.6072622,1525217.38,-4462540.367,4279808.854,-1.750749419,-2.198272024,-5.140158683,0.868402587,-0.253135595,-0.306161916,-0.296756129,0.645416667,1.18875,9.9485633,0.072703872,-0.020125828,-0.035724708,nan,nan,nan
30.69527236,1525217.242,-4462540.54,4279808.451,-1.296011392,-1.790855888,-5.138261003,0.867947816,-0.254119685,-0.307940279,-0.295402369,1.535416667,0.03875,10.5185633,0.048705594,0.026779896,-0.030270554,nan,nan,nan
30.76758462,1525217.136,-4462540.687,4279808.028,-0.999981237,-1.435317551,-5.071345812,0.867627558,-0.250515409,-0.311215161,-0.295989145,-0.774583333,0.74875,9.7785633,-0.05492333,0.100956389,-0.032452216,nan,nan,nan
30.84392456,1525217.059,-4462540.797,4279807.641,-0.581674589,-1.078690893,-5.00787337,0.867651563,-0.24861862,-0.312869143,-0.295774318,0.565416667,0.28875,10.9985633,-0.028743391,0.050778173,-0.031361385,nan,nan,nan
30.91564326,1525217.018,-4462540.874,4279807.281,-0.231636026,-0.752940136,-4.980508406,0.868366023,-0.245061018,-0.313181053,-0.296316008,0.225416667,0.10875,10.3085633,-0.093102407,0.034415711,-0.025907231,nan,nan,nan
30.98868428,1525217.001,-4462540.929,4279806.917,0.103037562,-0.39013532,-4.967853829,0.86850996,-0.241721956,-0.314859587,-0.296857519,0.375416667,0.31875,9.8585633,-0.071285792,0.069322296,-0.028088893,nan,nan,nan
31.06041502,1525217.008,-4462540.957,4279806.562,0.389872989,-0.06994128,-4.939604776,0.867171128,-0.24469347,-0.318190759,-0.294777851,-0.434583333,0.26875,9.7385633,0.127245411,0.054050665,-0.035724708,nan,nan,nan
31.13686408,1525217.038,-4462540.962,4279806.183,0.923892233,0.412839979,-5.012188354,0.862358665,-0.251884453,-0.314035173,-0.307040168,3.125416667,-0.23125,10.4485633,0.059613902,-0.031034136,0.400607605,nan,nan,nan
31.21434452,1525212.401,-4462549.581,4279801.811,-2.925773161,-11.1909875,-8.028834128,-0.016766049,-0.591620735,0.168387027,-0.788257328,-2.024583333,0.79875,12.1685633,-0.068013299,0.094411404,0.169351479,42.415556,-71.130576,10.5
31.28811043,1525212.17,-4462550.464,4279801.177,-2.406099977,-10.74454956,-8.431403545,-0.025565101,-0.588448268,0.180635767,-0.787683808,-1.004583333,-0.85125,9.0385633,-0.113828192,0.022416573,0.373336835,nan,nan,nan
31.35956493,1525211.998,-4462551.232,4279800.574,-1.956562642,-10.47955336,-8.836358736,-0.025318528,-0.589598933,0.17045924,-0.789098041,-0.974583333,1.14875,9.1085633,0.226511012,-0.008126689,-0.179714371,nan,nan,nan
31.43810595,1525211.844,-4462552.056,4279799.88,-1.333658209,-10.16450573,-9.440522899,-0.02548011,-0.591372704,0.170785168,-0.787693796,-3.424583333,1.33875,10.0585633,-0.011290099,-0.057214075,0.001363538,nan,nan,nan
31.50989669,1525211.748,-4462552.786,4279799.202,-0.906959102,-9.769918745,-9.575718794,-0.038231252,-0.591440248,0.170376094,-0.787215848,2.215416667,-1.48125,9.2585633,0.216693535,-0.070304044,0.272980403,nan,nan,nan
31.58833917,1525211.677,-4462553.551,4279798.451,-0.444916704,-9.491136477,-9.981863109,-0.040917869,-0.600993748,0.150490108,-0.783890917,-0.274583333,1.47875,8.8585633,0.416315568,-0.273198569,-0.284434127,nan,nan,nan
31.69173494,1525211.645,-4462554.236,4279797.732,0.023171955,-9.167447484,-10.26785532,-0.039383641,-0.601455593,0.151478227,-0.783424818,0.615416667,0.45875,9.4885633,-0.049469176,-0.010308351,-0.018271416,nan,nan,nan
31.76249135,1525211.648,-4462555.171,4279796.684,0.791003397,-8.702076668,-10.60230522,-0.03904598,-0.60277043,0.149363132,-0.782837068,0.965416667,0.03875,10.6185633,0.025798148,-0.027761643,-0.033543047,nan,nan,nan
31.83952842,1525211.708,-4462555.841,4279795.868,1.431292809,-8.394848605,-10.72090839,-0.040836911,-0.601469982,0.146752413,-0.784238444,2.535416667,0.02875,11.8785633,0.087975503,0.038779034,-0.000818123,nan,nan,nan
31.91178664,1525211.811,-4462556.445,4279795.097,1.990846471,-8.098130307,-10.92358742,-0.04442012,-0.602361456,0.141535897,-0.784318252,1.425416667,0.39875,11.0485633,0.173060304,-0.038669951,-0.012817262,nan,nan,nan
31.98999964,1525211.967,-4462557.079,4279794.241,2.498778387,-7.807478451,-11.09463502,-0.041826513,-0.600592081,0.142624358,-0.785619493,2.495416667,0.88875,10.0185633,-0.05492333,0.066049804,-0.030270554,nan,nan,nan
32.06179758,1525212.147,-4462557.642,4279793.441,3.008377966,-7.494892727,-11.31389175,-0.033346929,-0.597515825,0.152409928,-0.786532921,1.335416667,0.42875,10.2785633,-0.34726598,0.127136328,-0.0106356,nan,nan,nan
32.14101912,1525212.386,-4462558.236,4279792.544,3.505611443,-7.233338255,-11.64813808,-0.034861965,-0.597362922,0.150059835,-0.787035088,0.615416667,1.58875,9.4685633,0.071613041,0.002781618,-0.005181446,nan,nan,nan
32.21803411,1525205.972,-4462561.132,4279791.904,-0.8700454,-12.730374,-16.51532021,0.795506468,-0.587924513,-0.137637689,-0.050696095,0.595416667,0.86875,9.2785633,0.008344855,0.015871588,0.056995908,42.41544,-71.130696,10.5
32.29242742,1525205.903,-4462562.147,4279790.588,-0.776017636,-12.85794523,-16.78893178,0.796503433,-0.585887545,-0.140024491,-0.052069267,0.815416667,0.73875,9.6285633,-0.057104991,0.067140635,-0.016089754,nan,nan,nan
32.36489425,1525205.847,-4462563.084,4279789.364,-0.826428298,-12.9901595,-16.9731111,0.799527331,-0.579131927,-0.152381567,-0.046283012,-1.224583333,1.33875,9.5485633,-0.156370593,0.175132882,-0.355338127,nan,nan,nan
32.44121657,1525205.783,-4462564.075,4279788.069,-0.844150488,-13.10102486,-17.23749938,0.807853129,-0.564899571,-0.161590078,-0.046372887,-0.674583333,0.47875,9.0885633,-0.413806657,0.178405374,-0.204803479,nan,nan,nan
32.8245382,1525205.469,-4462568.964,4279781.637,-0.198586753,-13.7477159,-18.373826,0.80386105,-0.569163234,-0.166956332,-0.04456691,0.888416667,0.67975,10.0855633,0.033433963,0.020234911,-0.019362246,nan,nan,nan
32.89696875,1525205.452,-4462570.098,4279780.122,-0.023030786,-13.88337899,-18.72004754,0.803969719,-0.56906155,-0.167047471,-0.043552101,1.455416667,-0.18125,9.7885633,0.00070904,-0.012490012,-0.021543908,nan,nan,nan
32.96670577,1525205.451,-4462571.069,4279778.812,0.054888221,-14.04279972,-19.04830898,0.804697928,-0.568261618,-0.166554136,-0.042422857,0.455416667,-0.98125,9.8885633,-0.025470899,-0.032124967,-0.022634739,nan,nan,nan
33.04452365,1525205.455,-4462572.155,4279777.338,0.164656184,-14.18527357,-19.37501425,0.802021644,-0.571421413,-0.168715675,-0.042117376,0.775416667,-0.37125,9.7285633,0.108701287,0.048596511,-0.021543908,nan,nan,nan
33.1157115,1525205.467,-4462573.169,4279775.954,0.218158197,-14.34154793,-19.67523955,0.80251022,-0.570687571,-0.16886293,-0.042170547,0.015416667,-0.47125,9.8385633,-0.024380068,0.002781618,-0.005181446,nan,nan,nan
33.1934138,1525205.484,-4462574.285,4279774.423,0.339800383,-14.53019927,-20.04321173,0.803807537,-0.568901416,-0.168956005,-0.041212754,0.835416667,-0.96125,10.1585633,-0.051650838,-0.015762505,-0.030270554,nan,nan,nan
33.26892831,1525199.599,-4462572.971,4279781.656,-7.720406467,-12.5922102,-5.696504563,0.971169445,-0.003448884,0.143460505,0.190360442,-0.064583333,-0.32125,9.9585633,-0.059286653,-0.025579982,-0.02372557,42.415321,-71.130816,10.4
33.64031861,1525196.692,-4462577.713,4279779.511,-9.416876448,-10.10215116,-4.583322602,0.969534278,0.004949249,0.133643208,0.20522739,0.825416667,-0.43125,9.7685633,-0.064522641,0.040633447,-0.072049373,nan,nan,nan
33.71979301,1525196.037,-4462578.415,4279779.192,-9.704023835,-9.584744517,-4.340972203,0.969346569,0.003633565,0.133410876,0.206290003,0.825416667,0.28875,10.2385633,0.031252302,0.013689926,-0.035724708,nan,nan,nan
33.79561568,1525195.204,-4462579.239,4279778.819,-10.09657181,-8.950942835,-4.102486783,0.969097597,0.003313587,0.132988522,0.207732811,0.275416667,0.03875,9.6585633,0.00070904,0.010417434,-0.034633877,nan,nan,nan
33.8656459,1525194.496,-4462579.866,4279778.532,-10.39182587,-8.46513858,-3.894407175,0.968860537,0.003143461,0.132620595,0.209072131,0.805416667,-0.21125,9.7285633,-0.002563452,0.010417434,-0.0389972,nan,nan,nan
33.93948056,1525193.737,-4462580.485,4279778.247,-10.67637157,-7.947643606,-3.6536416,0.968328194,0.004016748,0.133166532,0.21116593,1.105416667,0.06875,9.9685633,-0.02765256,-0.021216659,-0.055359662,nan,nan,nan
34.01049303,1525192.97,-4462581.055,4279777.985,-11.02820475,-7.394476192,-3.428633369,0.967795908,0.003528206,0.133550985,0.213360649,-0.054583333,0.19875,10.1085633,0.007254025,-0.00921752,-0.064086308,nan,nan,nan
34.08115832,1525192.191,-4462581.578,4279777.742,-11.32505694,-6.843470656,-3.215383554,0.967475899,0.002398458,0.132945013,0.215198178,0.485416667,0.57875,9.8285633,0.020343994,0.022416573,-0.056450493,nan,nan,nan
34.15153448,1525191.398,-4462582.057,4279777.517,-11.47244591,-6.359726018,-2.905464767,0.966750597,0.002129836,0.134508474,0.217476938,3.035416667,0.72875,10.5885633,0.008344855,-0.044124105,-0.068449632,nan,nan,nan
34.22173378,1525190.589,-4462582.505,4279777.312,-11.71227635,-5.890134053,-2.635294098,0.966309907,0.002750041,0.133615067,0.219965031,1.885416667,-0.05125,10.3285633,-0.032015883,0.01914408,-0.068449632,nan,nan,nan
34.30389329,1525192.801,-4462584.203,4279772.495,-8.259249377,-9.095020886,-6.182230075,0.990542793,-0.13565123,0.013629295,0.015426043,0.385416667,0.44875,9.2085633,0.010526517,0.008235772,-0.077176278,42.415203,-71.130933,10.4
34.6845686,1525189.693,-4462587.624,4279770.169,-9.454200986,-7.197452316,-5.091689737,0.990448251,-0.134971127,0.012578058,0.025235895,-0.554583333,0.79875,9.6685633,-0.004308782,-0.001581705,-0.052305336,nan,nan,nan
34.75795578,1525188.902,-4462588.227,4279769.743,-9.541866666,-6.746021832,-4.789172622,0.99046442,-0.134391567,0.009423802,0.028815467,1.555416667,1.39875,10.1985633,-0.016744253,0.062777312,-0.09462957,nan,nan,nan
34.82954261,1525188.216,-4462588.712,4279769.399,-9.516607974,-6.397200687,-4.618597649,0.990645273,-0.13253323,0.005304167,0.032074164,2.905416667,0.61875,9.1185633,-0.056014161,0.099865558,-0.104447047,nan,nan,nan
34.9027028,1525187.519,-4462589.18,4279769.061,-9.702216343,-5.987725867,-4.473280537,0.990603044,-0.131853436,0.003953474,0.036119946,-0.094583333,1.03875,8.6285633,-0.020016745,0.021325742,-0.114264524,nan,nan,nan
34.97446333,1525186.826,-4462589.608,4279768.741,-9.815544005,-5.595384746,-4.276089677,0.990285579,-0.133160795,0.003637362,0.039867838,0.835416667,1.19875,9.3885633,0.036706456,-0.003763366,-0.105537878,nan,nan,nan
35.05084556,1525186.073,-4462590.037,4279768.413,-9.878692217,-5.214791961,-4.115407459,0.990470201,-0.130574317,0.001293357,0.043788763,1.635416667,0.59875,8.8685633,-0.070194961,0.044233188,-0.108810371,nan,nan,nan
35.12280366,1525185.362,-4462590.412,4279768.117,-10.11022375,-4.908837443,-3.886957606,0.990223184,-0.130826929,4.17E-05,0.048397926,-0.734583333,-0.04125,10.1385633,0.006163194,0.018053249,-0.131717817,nan,nan,nan
35.20133168,1525184.569,-4462590.798,4279767.812,-10.08638359,-4.581036699,-3.571380892,0.99012187,-0.129668222,-0.001595172,0.053313133,2.755416667,0.43875,10.9285633,-0.030925053,0.023507403,-0.129536155,nan,nan,nan
35.27343008,1525183.841,-4462591.128,4279767.554,-10.18720995,-4.208964072,-3.447951247,0.989639924,-0.131579293,-0.003943566,0.057307585,0.975416667,0.60875,8.4685633,0.050887256,0.052959834,-0.118627848,nan,nan,nan
35.35774642,1525187.003,-4462595.318,4279763.29,-3.413194335,-9.573300786,-6.475756504,0.883604127,-0.288481253,-0.315901718,0.190337642,3.215416667,0.56875,8.7685633,0.009435686,0.062777312,-0.118627848,42.415086,-71.131043,10.4
35.43006405,1525186.737,-4462596.063,4279762.786,-3.012310229,-9.654841527,-6.586330297,0.883653104,-0.284856231,-0.317101247,0.193548233,3.205416667,-0.10125,11.6285633,-0.062559145,-0.014671674,-0.110992032,nan,nan,nan
35.50242781,1525186.519,-4462596.762,4279762.309,-2.690402684,-9.514449119,-6.69683833,0.880782773,-0.289076524,-0.317402624,0.19977999,2.295416667,1.73875,9.3685633,0.178514458,0.006054111,-0.132808648,nan,nan,nan
35.57435671,1525186.326,-4462597.446,4279761.827,-2.385557129,-9.454966694,-6.907172931,0.879577852,-0.289702886,-0.316121864,0.206111638,3.255416667,0.39875,9.0785633,0.087975503,-0.068122382,-0.145898617,nan,nan,nan
35.65267186,1525186.139,-4462598.187,4279761.286,-2.100133565,-9.368256201,-7.05477842,0.877198452,-0.291548818,-0.317269879,0.211806485,2.115416667,0.76875,9.2785633,0.09888381,0.012599096,-0.133899479,nan,nan,nan
36.03617828,1525185.354,-4462601.686,4279758.651,-0.777029147,-9.089363625,-7.682169111,0.864034614,-0.304083725,-0.324885733,0.235428406,1.955416667,0.61775,9.5915633,0.110882949,0.035506542,-0.116446186,nan,nan,nan
36.11221223,1525185.288,-4462602.467,4279757.991,-0.528587026,-8.981311477,-7.832562213,0.862662364,-0.304004411,-0.323980946,0.241725692,1.295416667,1.03875,8.9185633,0.060704733,-0.052850751,-0.128445325,nan,nan,nan
36.18429191,1525185.249,-4462603.114,4279757.427,-0.353058214,-8.879081137,-7.919646531,0.862681712,-0.300906906,-0.323293479,0.246407435,0.595416667,1.12875,8.9385633,-0.02765256,-0.076849029,-0.133899479,nan,nan,nan
36.25794375,1525185.223,-4462603.767,4279756.845,-0.128958662,-8.826234719,-8.041510433,0.861989877,-0.30038502,-0.321464789,0.25179889,1.525416667,0.84875,9.3885633,0.053068918,-0.084484844,-0.120809509,nan,nan,nan
36.32897881,1525185.214,-4462604.396,4279756.271,0.034356277,-8.743236305,-8.047907358,0.860032165,-0.300066185,-0.324548994,0.254897843,-0.144583333,1.28875,9.7285633,0.01488984,0.063868142,-0.117537017,nan,nan,nan
36.41124281,1525181.433,-4462606.29,4279753.634,-3.921564539,-12.06103445,-10.45853298,0.72665073,-0.408598458,-0.335716496,0.438543557,0.615416667,1.08875,9.7385633,0.150152857,0.094411404,-0.124082002,42.414973,-71.131153,10.3
36.69471686,1525180.341,-4462609.648,4279750.722,-4.017945306,-12.26090498,-10.98045881,0.727579565,-0.389402453,-0.345266695,0.446972724,-0.484583333,1.10875,9.0685633,-0.112737361,-0.03757912,-0.115355355,nan,nan,nan
36.76620699,1525180.012,-4462610.652,4279749.823,-4.033358004,-12.37023249,-11.14100138,0.726357846,-0.385740527,-0.350022753,0.448433494,-0.054583333,0.74875,9.6285633,-0.093102407,0.040960696,-0.115355355,nan,nan,nan
36.83920651,1525179.719,-4462611.551,4279749.013,-3.96700539,-12.49760406,-11.30562637,0.72560297,-0.382509942,-0.35268946,0.450329456,0.715416667,1.48875,10.0385633,-0.071285792,0.000599957,-0.106628709,nan,nan,nan
36.91481114,1525179.417,-4462612.502,4279748.153,-3.935208294,-12.56573008,-11.35465413,0.723899677,-0.381645257,-0.351445741,0.45475493,-1.184583333,1.62875,9.9585633,0.05634141,-0.062668228,-0.100083724,nan,nan,nan
36.98678971,1525179.134,-4462613.406,4279747.336,-3.89116511,-12.67969562,-11.59275519,0.721382057,-0.382240155,-0.351986456,0.457827399,1.465416667,1.01875,9.3585633,0.061795564,0.010417434,-0.09353874,nan,nan,nan
37.06016201,1525178.85,-4462614.331,4279746.491,-3.8492114,-12.83656443,-11.79702013,0.720522492,-0.379887461,-0.35193638,0.461165525,1.225416667,0.98875,10.0785633,-0.004745114,-0.057214075,-0.098992894,nan,nan,nan
37.13177021,1525178.573,-4462615.254,4279745.642,-3.848698893,-12.92930682,-11.9930097,0.720134037,-0.37628945,-0.353593773,0.463448663,0.665416667,0.72875,9.2685633,-0.066922469,-0.033215797,-0.103356217,nan,nan,nan
37.20894404,1525178.275,-4462616.254,4279744.715,-3.787777375,-13.06783519,-12.2341647,0.716990342,-0.377016835,-0.355698344,0.466113553,1.475416667,1.18875,9.6485633,0.043251441,0.050778173,-0.101174555,nan,nan,nan
37.28085906,1525178.004,-4462617.188,4279743.84,-3.694060414,-13.26029763,-12.50184343,0.714816705,-0.37662036,-0.3563471,0.469266372,2.485416667,1.33875,10.2285633,0.037797287,-0.003763366,-0.102265386,nan,nan,nan
37.35937525,1525177.714,-4462618.23,4279742.858,-3.637076622,-13.39737152,-12.68696041,0.711676748,-0.37705073,-0.358593914,0.471973896,0.725416667,1.37875,9.9485633,0.035615625,0.048596511,-0.104447047,nan,nan,nan
37.43652612,1525174.968,-4462616.869,4279744.827,-6.796571318,-11.28279246,-7.991908081,0.79956939,-0.368005088,-0.119164206,0.45941369,2.925416667,1.45875,10.1885633,0.032343133,-0.035397459,-0.098992894,42.414868,-71.131268,10.3
37.50961801,1525174.435,-4462617.754,4279744.2,-7.016553378,-11.22859296,-7.883551275,0.797869326,-0.367737073,-0.120972838,0.462103405,-0.494583333,1.55875,9.9685633,-0.002563452,0.013689926,-0.092447909,nan,nan,nan
37.58151979,1525173.928,-4462618.565,4279743.631,-7.233127673,-11.19102505,-7.805252032,0.796414842,-0.367302601,-0.123909444,0.464175235,-0.354583333,1.19875,9.9085633,-0.025470899,0.043142357,-0.095720401,nan,nan,nan
37.68175256,1525173.365,-4462619.438,4279743.022,-7.48431112,-11.16771085,-7.717124129,0.794782198,-0.366577211,-0.12498886,0.467247464,-0.394583333,0.94875,10.1285633,-0.002563452,-0.010308351,-0.09462957,nan,nan,nan
37.7602602,1525172.612,-4462620.561,4279742.246,-7.706388629,-11.28214922,-7.784413419,0.791528695,-0.367800479,-0.126096813,0.471492022,2.055416667,0.52875,9.7285633,0.043251441,0.006054111,-0.102265386,nan,nan,nan
37.83238514,1525172.055,-4462621.376,4279741.684,-7.919815958,-11.24525762,-7.752324476,0.789819455,-0.366824305,-0.126738159,0.474934308,-0.034583333,0.94875,9.4585633,-0.000381791,-0.027761643,-0.10771954,nan,nan,nan
37.91142051,1525171.429,-4462622.264,4279741.071,-8.14864579,-11.21834911,-7.683319132,0.787427333,-0.367020812,-0.128471796,0.47827703,-0.114583333,1.14875,9.8685633,0.015980671,0.013689926,-0.110992032,nan,nan,nan
37.98280739,1525170.846,-4462623.067,4279740.522,-8.371128516,-11.22538123,-7.584724021,0.785552097,-0.36654982,-0.13073512,0.481100261,-0.234583333,1.08875,10.5585633,-0.011290099,0.021325742,-0.112082863,nan,nan,nan
38.06166107,1525170.189,-4462623.949,4279739.926,-8.57949971,-11.25779486,-7.514025619,0.783343804,-0.366039515,-0.132308566,0.484646264,0.445416667,1.16875,10.3785633,0.002890702,-0.000490874,-0.114264524,nan,nan,nan
38.13381483,1525169.569,-4462624.761,4279739.383,-8.767251774,-11.27780716,-7.461244996,0.781257896,-0.365433679,-0.133930549,0.488013252,0.465416667,1.17875,10.1585633,-0.001472622,0.000599957,-0.119718678,nan,nan,nan
38.41278735,1525167.122,-4462627.909,4279737.301,-9.399674518,-11.42474261,-7.287372992,0.770965198,-0.366766955,-0.139206903,0.501713168,0.845416667,1.35875,10.2085633,0.02907064,0.008235772,-0.125172832,nan,nan,nan
38.48991039,1525168.177,-4462627.345,4279736.195,-7.180785194,-9.912976589,-7.005036905,0.838711661,-0.304285952,-0.1407164,0.429152308,-0.284583333,1.50875,9.7085633,0.020343994,0.026779896,-0.124082002,42.414763,-71.131386,10.2
38.69064566,1525166.893,-4462629.117,4279734.943,-7.401967933,-9.66343685,-6.685111943,0.83501954,-0.300557077,-0.145801685,0.437206679,-0.064583333,1.72875,9.9285633,-0.034197545,0.008235772,-0.116446186,nan,nan,nan
38.76450228,1525166.15,-4462630.087,4279734.271,-7.528485551,-9.542912892,-6.530434039,0.831684657,-0.30111179,-0.148718529,0.442170918,0.125416667,1.46875,9.8685633,0.018162333,0.03332488,-0.127354494,nan,nan,nan
38.8359757,1525165.608,-4462630.774,4279733.801,-7.549461197,-9.549467322,-6.487028106,0.829817615,-0.300269609,-0.149690699,0.445907595,1.935416667,1.38875,9.9385633,-0.000381791,-0.011399182,-0.120809509,nan,nan,nan
38.91406903,1525165.018,-4462631.521,4279733.294,-7.62159484,-9.546990384,-6.327267008,0.826797056,-0.302540625,-0.152014991,0.449185085,0.755416667,1.45875,10.9885633,0.057432241,0.061686481,-0.113173694,nan,nan,nan
39.28806702,1525162.17,-4462635.088,4279730.93,-8.073586157,-9.290934911,-5.76439416,0.817931952,-0.293366677,-0.159155718,0.468607268,0.387416667,1.34975,10.1605633,-0.02765256,-0.014671674,-0.126263663,nan,nan,nan
39.36672274,1525161.533,-4462635.82,4279730.475,-8.171776526,-9.120995432,-5.563355287,0.815924021,-0.291706502,-0.158920625,0.473201378,-1.184583333,2.14875,10.0585633,0.001799871,-0.05066909,-0.124082002,nan,nan,nan
39.44019704,1525160.934,-4462636.489,4279730.067,-8.266418156,-9.070613424,-5.493511627,0.81359131,-0.290931896,-0.158790483,0.477716857,0.665416667,1.01875,9.7385633,0.022525656,-0.038669951,-0.132808648,nan,nan,nan
39.52225688,1525162.454,-4462635.845,4279729.42,-4.882612599,-7.195937558,-4.932859394,0.861898436,-0.189889508,-0.213028557,0.419156171,0.555416667,1.72875,10.2485633,0.030161471,0.014780757,-0.12190034,42.41468,-71.131485,10.2
39.90248734,1525160.62,-4462638.547,4279727.568,-4.711678273,-6.165635924,-4.213442838,0.85139573,-0.187107279,-0.217046847,0.439325442,-0.294583333,1.14875,9.7985633,0.011726431,0.003763366,-0.123209337,nan,nan,nan
39.97596634,1525160.226,-4462639.063,4279727.215,-4.512922586,-6.171473587,-4.052130115,0.847526316,-0.190481138,-0.218850058,0.444433047,2.505416667,1.23875,11.6285633,0.093429657,0.069322296,-0.134990309,nan,nan,nan
40.04806445,1525159.902,-4462639.506,4279726.925,-4.335754738,-6.221748433,-4.004406758,0.845545933,-0.189087889,-0.219991698,0.448220368,3.575416667,0.93875,10.9285633,-0.01347176,0.001690788,-0.128445325,nan,nan,nan
40.12045674,1525159.586,-4462639.959,4279726.633,-4.294114692,-5.999630786,-3.84644339,0.843065928,-0.188930176,-0.222910879,0.451504119,-0.734583333,1.52875,9.8585633,-0.006926775,0.063868142,-0.122991171,nan,nan,nan
40.19240314,1525159.277,-4462640.39,4279726.357,-4.192586121,-5.804835052,-3.737858578,0.840692399,-0.188444253,-0.22504121,0.455062092,0.215416667,1.96875,9.6585633,-0.003654283,0.039869865,-0.127354494,nan,nan,nan
40.26948176,1525158.954,-4462640.838,4279726.068,-3.988782889,-5.678189356,-3.651365087,0.838835089,-0.185913561,-0.22458396,0.459732409,1.705416667,2.41875,10.1485633,-0.01347176,-0.051759921,-0.13608114,nan,nan,nan
40.3411885,1525158.668,-4462641.245,4279725.806,-3.84404078,-5.55265856,-3.66092982,0.837109362,-0.183561386,-0.224821552,0.463689986,2.035416667,1.81875,8.9185633,-0.024380068,-0.034306628,-0.130626986,nan,nan,nan
40.41965773,1525158.367,-4462641.681,4279725.519,-3.672773937,-5.456605393,-3.531282678,0.834006126,-0.184454421,-0.225832998,0.468412005,1.505416667,1.87875,10.7085633,0.048705594,0.027870726,-0.137171971,nan,nan,nan
40.49170384,1525158.102,-4462642.074,4279725.265,-3.658992255,-5.290840925,-3.406979469,0.83143768,-0.183778429,-0.228872732,0.471756449,-0.244583333,0.74875,9.7985633,-0.021107576,0.06059565,-0.130626986,nan,nan,nan
40.57526058,1525154.984,-4462645.45,4279722.223,-6.962517436,-10.27745058,-6.300299557,0.734239716,-0.370388657,-0.26371165,0.504143281,0.695416667,1.91875,9.6885633,0.017071502,0.092229743,-0.124082002,42.414591,-71.13161,10.2
40.64406631,1525154.467,-4462646.213,4279721.755,-6.905120879,-10.35214534,-6.470489115,0.731557659,-0.370041352,-0.268906315,0.505551366,2.095416667,2.40875,8.9385633,-0.04074253,0.10313805,-0.118627848,nan,nan,nan
40.73068227,1525153.936,-4462647.009,4279721.257,-7.004018877,-10.59459177,-6.614855104,0.728981183,-0.369046597,-0.268456196,0.510217909,2.135416667,0.11875,10.9085633,0.044342271,-0.048487428,-0.125172832,nan,nan,nan
40.80256059,1525153.364,-4462647.874,4279720.717,-7.206071396,-10.54408556,-6.557167805,0.726552321,-0.367186184,-0.276968169,0.510474941,-2.264583333,0.51875,9.3285633,-0.116009854,0.142407959,-0.124082002,nan,nan,nan
40.87905285,1525152.814,-4462648.68,4279720.216,-7.375051843,-10.57473189,-6.431246924,0.725198323,-0.364708256,-0.277886547,0.513667545,-2.474583333,0.67875,10.6885633,-0.023289237,-0.03648829,-0.105537878,nan,nan,nan
40.95116912,1525152.283,-4462649.44,4279719.754,-7.411280983,-10.82169694,-6.446544524,0.719511767,-0.368909187,-0.277777721,0.518698725,1.185416667,1.17875,12.1385633,0.182877781,0.050778173,-0.14917111,nan,nan,nan
41.02360067,1525151.746,-4462650.225,4279719.287,-7.557303655,-11.00016643,-6.557336222,0.720987664,-0.360537063,-0.280857496,0.520873192,1.165416667,-0.22125,10.5485633,-0.20873047,-0.09212066,-0.117537017,nan,nan,nan
41.09570744,1525151.2,-4462651.02,4279718.813,-7.608436735,-11.26880393,-6.782579185,0.720661438,-0.355168465,-0.282531028,0.52409796,3.555416667,0.26875,10.6685633,-0.102919884,-0.073576536,-0.127354494,nan,nan,nan
41.17268281,1525150.616,-4462651.885,4279718.292,-7.568119289,-11.35861683,-6.828456951,0.718767917,-0.352786244,-0.286529054,0.52613273,0.595416667,2.44875,10.1185633,-0.066922469,0.037688204,-0.118627848,nan,nan,nan
41.24476291,1525150.072,-4462652.701,4279717.801,-7.654756269,-11.51879284,-7.030534779,0.717792291,-0.348693883,-0.284662427,0.531181802,2.375416667,0.07875,9.6185633,-0.004745114,-0.139026383,-0.129536155,nan,nan,nan
41.32251167,1525149.472,-4462653.603,4279717.251,-7.702499279,-11.56271583,-6.967489655,0.713436828,-0.350533202,-0.284638603,0.535831348,-1.124583333,1.70875,10.4285633,0.106519626,0.014780757,-0.130626986,nan,nan,nan
41.39464331,1525148.917,-4462654.437,4279716.748,-7.605754336,-11.85597934,-7.136776155,0.710618387,-0.35022727,-0.284828666,0.53966193,3.805416667,2.41875,11.4285633,0.048705594,-0.015762505,-0.12190034,nan,nan,nan
41.47309938,1525148.32,-4462655.367,4279716.188,-7.524574701,-11.93914473,-7.038650369,0.709485465,-0.34629255,-0.285570068,0.543287753,-0.804583333,3.39875,11.1185633,-0.045105853,-0.06484989,-0.116446186,nan,nan,nan
41.54569221,1525147.776,-4462656.23,4279715.68,-7.506604907,-12.06190144,-7.061328509,0.70619674,-0.347369273,-0.285940983,0.546679529,0.615416667,2.19875,10.6885633,0.073794702,0.016962419,-0.110992032,nan,nan,nan
41.62962515,1525147.193,-4462655.403,4279714.394,-7.386144796,-11.12172328,-7.606314097,0.743818504,-0.424510746,-0.257656392,0.447367684,0.645416667,2.80875,10.0685633,0.071613041,0.014780757,-0.115355355,42.414498,-71.131738,10
41.71199044,1525146.618,-4462656.269,4279713.802,-7.388456713,-11.28964062,-7.740766024,0.740318423,-0.425626679,-0.258333298,0.451701749,1.375416667,1.84875,10.2485633,0.080339687,0.001690788,-0.122991171,nan,nan,nan
41.78420695,1525146.013,-4462657.194,4279713.168,-7.362058264,-11.42592217,-7.934517052,0.737848038,-0.424782702,-0.260770503,0.4551249,1.785416667,2.09875,9.4885633,0.005072363,0.014780757,-0.119718678,nan,nan,nan
41.8562483,1525145.48,-4462658.021,4279712.593,-7.479979032,-11.60317391,-8.093213796,0.736927592,-0.421928137,-0.263458249,0.457716203,1.095416667,0.26875,10.2585633,-0.062559145,-0.004854197,-0.116446186,nan,nan,nan
41.93290415,1525144.907,-4462658.911,4279711.973,-7.39287496,-11.70043448,-8.218546829,0.735213506,-0.420194993,-0.26752785,0.459702206,1.355416667,3.18875,9.5285633,-0.049469176,0.047505681,-0.115355355,nan,nan,nan
42.00473038,1525144.377,-4462659.748,4279711.385,-7.429758446,-11.80270615,-8.303335685,0.73248161,-0.420796143,-0.271018321,0.461465456,0.295416667,1.80875,9.8985633,0.012708179,0.079139773,-0.10771954,nan,nan,nan
42.07721618,1525143.836,-4462660.608,4279710.78,-7.3337667,-11.88360849,-8.363440929,0.728493009,-0.423477755,-0.272190277,0.464625636,0.585416667,3.67875,9.8185633,0.108701287,0.050778173,-0.10771954,nan,nan,nan
42.14925412,1525143.308,-4462661.464,4279710.178,-7.320121828,-12.0168234,-8.522383508,0.726262227,-0.422593434,-0.273424695,0.468184689,1.465416667,2.07875,9.7485633,0.019253163,-0.011399182,-0.12190034,nan,nan,nan
42.22520924,1525142.752,-4462662.377,4279709.53,-7.394162931,-12.21481633,-8.785880982,0.723773457,-0.421992441,-0.274086703,0.472176708,2.315416667,0.43875,9.7785633,0.036706456,-0.021216659,-0.118627848,nan,nan,nan
42.29802656,1525142.215,-4462663.263,4279708.893,-7.438827432,-12.3951975,-9.027243396,0.722979385,-0.418664255,-0.277767575,0.474200616,2.305416667,0.88875,9.7385633,-0.089829915,0.012599096,-0.118627848,nan,nan,nan
42.37577186,1525141.636,-4462664.229,4279708.189,-7.407166426,-12.51886423,-9.219003822,0.720458961,-0.417792197,-0.277984591,0.478657637,1.595416667,2.25875,9.3985633,0.039978948,-0.03648829,-0.12190034,nan,nan,nan
42.5488247,1525140.354,-4462666.396,4279706.594,-7.588897663,-12.67089509,-9.303996593,0.715186141,-0.416406329,-0.278672941,0.487294516,-0.864583333,1.75875,9.7485633,0.037797287,-0.026670813,-0.108810371,nan,nan,nan
42.63242245,1525139.778,-4462665.086,4279706.944,-7.325391108,-10.59271835,-7.324010702,0.816275054,-0.411052139,-0.17707169,0.365207875,2.335416667,1.66875,10.0585633,0.062886395,0.036597373,-0.112082863,42.414408,-71.131861,10
42.71106838,1525139.235,-4462665.87,4279706.402,-7.292559371,-10.62393403,-7.373921228,0.813751624,-0.412211895,-0.179963874,0.368106849,1.645416667,2.40875,9.3485633,0.038888117,0.055141496,-0.115355355,nan,nan,nan
43.08355151,1525136.449,-4462669.93,4279703.584,-7.638425209,-10.66372258,-7.245661308,0.803110606,-0.412853084,-0.190314976,0.385156976,-0.054583333,2.10875,9.7085633,0.021762074,0.018598665,-0.11480994,nan,nan,nan
43.15324291,1525135.92,-4462670.668,4279703.083,-7.697051376,-10.79377999,-7.294203668,0.801168494,-0.413579043,-0.191136159,0.388005655,1.285416667,1.04875,10.5185633,0.046523933,0.003872449,-0.09353874,nan,nan,nan
43.2292324,1525135.331,-4462671.494,4279702.525,-7.836041045,-10.88525454,-7.308035795,0.800305265,-0.411977878,-0.192957484,0.390580492,0.025416667,0.84875,10.2785633,-0.029834222,-0.001581705,-0.090266247,nan,nan,nan
43.30118889,1525134.765,-4462672.281,4279701.997,-7.906544321,-10.91702527,-7.29882814,0.798276223,-0.413038715,-0.194082606,0.393047115,-0.004583333,1.90875,9.8385633,0.047614764,0.01914408,-0.083721263,nan,nan,nan
43.37919426,1525134.149,-4462673.131,4279701.428,-8.034711346,-10.99980696,-7.36087392,0.796162301,-0.413757756,-0.194990286,0.396117278,0.435416667,0.72875,9.8085633,0.043251441,0.003872449,-0.090266247,nan,nan,nan
43.55249414,1525132.76,-4462675.033,4279700.156,-8.303899622,-11.12617871,-7.601507252,0.793393767,-0.412726064,-0.196784506,0.401820091,0.705416667,0.64875,9.1885633,0.008344855,-0.00921752,-0.076085447,nan,nan,nan
43.63654319,1525131.749,-4462673.906,4279700.63,-9.109717537,-8.594819851,-5.186876201,0.820419796,-0.30750553,-0.120277539,0.466781555,-0.144583333,1.52875,8.8585633,-0.059286653,-0.033215797,-0.077176278,42.414331,-71.131988,10
43.71881603,1525131.039,-4462674.576,4279700.226,-9.08269318,-8.581288974,-5.144981651,0.819210813,-0.306879363,-0.122934131,0.468621277,2.595416667,2.55875,9.4685633,-0.029834222,0.037688204,-0.076085447,nan,nan,nan
43.79053398,1525130.3,-4462675.275,4279699.807,-9.291453605,-8.452323929,-5.03689209,0.818088958,-0.30712176,-0.124132511,0.470104033,-0.354583333,0.92875,9.4785633,0.003981532,0.01914408,-0.050996339,nan,nan,nan
43.86272437,1525129.625,-4462675.888,4279699.442,-9.404538064,-8.425451028,-4.997680483,0.817475766,-0.30579666,-0.125685547,0.471619463,1.385416667,1.02875,9.5285633,-0.039651699,0.007144942,-0.059722985,nan,nan,nan
43.93918826,1525128.907,-4462676.532,4279699.06,-9.557490649,-8.347989982,-4.896044984,0.816809365,-0.304953358,-0.126821758,0.473013904,0.305416667,1.16875,9.7885633,-0.022198406,0.00496328,-0.049905508,nan,nan,nan
44.01114928,1525128.222,-4462677.13,4279698.709,-9.72270454,-8.292767418,-4.805939031,0.816418084,-0.302978108,-0.127313717,0.474823121,0.345416667,0.77875,9.9085633,-0.041833361,-0.028852474,-0.057541324,nan,nan,nan
44.08114963,1525127.538,-4462677.713,4279698.371,-9.866682843,-8.251907709,-4.735180843,0.815100196,-0.303776115,-0.127275383,0.476584431,0.755416667,0.80875,9.8085633,0.036706456,-0.000490874,-0.055359662,nan,nan,nan
44.15263626,1525126.836,-4462678.3,4279698.034,-10.03734357,-8.145768767,-4.634156884,0.814854412,-0.301794068,-0.12819314,0.478015844,-0.274583333,1.01875,9.5985633,-0.050560007,-0.016853336,-0.050996339,nan,nan,nan
44.23007611,1525126.058,-4462678.932,4279697.675,-10.19154703,-8.096702019,-4.567398735,0.813516555,-0.302099849,-0.127950507,0.480161602,0.825416667,0.81875,9.6585633,0.026888979,-0.013580843,-0.058632155,nan,nan,nan
44.30233442,1525125.319,-4462679.519,4279697.344,-10.35319863,-7.973442652,-4.455231678,0.812814188,-0.301425313,-0.129796001,0.481278376,-0.384583333,1.26875,9.5585633,-0.029834222,0.025689065,-0.05208717,nan,nan,nan
44.38103689,1525124.506,-4462680.145,4279696.994,-10.51519609,-7.797293788,-4.313190983,0.812329345,-0.299926165,-0.130094284,0.48295011,-0.834583333,1.67875,9.4185633,-0.025470899,-0.02339832,-0.047723847,nan,nan,nan
44.45256085,1525123.753,-4462680.703,4279696.685,-10.70454903,-7.684081927,-4.219763263,0.811666537,-0.298962206,-0.130022634,0.484678395,-0.394583333,0.73875,9.4785633,-0.009108437,-0.026670813,-0.050996339,nan,nan,nan
44.5261046,1525122.965,-4462681.269,4279696.374,-10.87599031,-7.562500413,-4.148328997,0.811278749,-0.297186653,-0.130636804,0.486251901,-0.104583333,0.90875,9.1485633,-0.038560868,-0.021216659,-0.050996339,nan,nan,nan
44.59753394,1525122.188,-4462681.81,4279696.078,-11.00929229,-7.454035212,-4.116882541,0.810878658,-0.295374311,-0.130605044,0.488028833,0.495416667,1.04875,8.7785633,-0.030925053,-0.038669951,-0.05208717,nan,nan,nan
44.68617773,1525113.923,-4462690.531,4279689.177,-22.34427933,-19.79423344,-13.67061279,0.468143095,-0.872483517,0.028763618,0.137066444,0.975416667,1.01875,8.9485633,-0.036379207,-0.034306628,-0.048814678,42.414193,-71.13226,9.9
44.75789935,1525111.913,-4462692.311,4279687.948,-22.7119837,-19.89791009,-14.61828265,0.468769138,-0.871899617,0.027147784,0.138958813,0.585416667,1.10875,8.9985633,-0.024380068,-0.021216659,-0.048814678,nan,nan,nan
44.83372977,1525110.191,-4462693.82,4279686.839,-23.02873617,-19.99797745,-15.44966396,0.469029741,-0.871384477,0.026437357,0.141425821,0.635416667,0.82875,9.3785633,-0.016744253,-0.049578259,-0.045542185,nan,nan,nan
44.90418185,1525108.574,-4462695.224,4279685.754,-23.38487089,-20.06493733,-16.21336526,0.469687573,-0.87089218,0.025191181,0.142498419,-0.274583333,0.60875,9.2785633,-0.028743391,-0.011399182,-0.042269693,nan,nan,nan
44.97710354,1525106.862,-4462696.693,4279684.567,-23.69991643,-20.1262089,-17.01255249,0.469267195,-0.871022046,0.023924077,0.143305737,0.455416667,0.55875,8.9985633,0.006163194,-0.002672535,-0.042269693,nan,nan,nan
45.04900336,1525105.157,-4462698.14,4279683.344,-24.06637479,-20.21114436,-17.8066123,0.469741233,-0.870873074,0.022213143,0.142932994,-0.214583333,0.57875,9.5585633,-0.020016745,0.031143219,-0.034633877,nan,nan,nan
45.11859264,1525103.483,-4462699.547,4279682.105,-24.40589771,-20.31648159,-18.58949441,0.470200262,-0.870593265,0.021117553,0.143293856,0.075416667,0.59875,9.8785633,-0.020016745,0.00496328,-0.030270554,nan,nan,nan
45.19353438,1525101.654,-4462701.069,4279680.712,-24.78155862,-20.39255821,-19.42222245,0.4730685,-0.868872938,0.020019839,0.144447982,-0.174583333,0.40875,9.4385633,-0.093102407,-0.017944166,-0.028088893,nan,nan,nan
45.26568352,1525099.867,-4462702.54,4279679.311,-25.05518944,-20.50409031,-20.18011423,0.475131035,-0.867907289,0.017975331,0.143750916,0.955416667,1.25875,9.2385633,-0.070194961,0.040960696,-0.031361385,nan,nan,nan
45.33773359,1525098.061,-4462704.017,4279677.857,-25.41203836,-20.63673231,-20.98060714,0.474660834,-0.868193569,0.016828974,0.14371432,0.005416667,0.75875,10.0985633,0.010526517,0.016962419,-0.029179723,nan,nan,nan
45.72507002,1525103.707,-4462699.649,4279684.09,-12.44714238,-16.9237134,-4.230112163,0.878904261,-0.236067331,-0.366400002,0.193779652,0.302416667,0.77275,9.3815633,-0.085466592,0.00496328,-0.030270554,42.414133,-71.132401,9.8
45.79795538,1525102.613,-4462701.138,4279683.718,-12.07201968,-16.7939978,-4.293559326,0.878427803,-0.235260829,-0.367905102,0.194068992,0.905416667,0.62875,10.2985633,-0.017835083,0.028961557,-0.022634739,nan,nan,nan
46.17220919,1525098.099,-4462707.417,4279682.113,-10.75977229,-16.00639837,-4.572164794,0.875692694,-0.232082124,-0.374700566,0.197230017,0.295416667,0.73375,9.5165633,-0.012380929,0.030052388,-0.032452216,nan,nan,nan
46.24755896,1525097.281,-4462708.633,4279681.766,-10.45333613,-15.83921471,-4.571354958,0.875556058,-0.231400429,-0.374807806,0.198430188,-0.064583333,1.23875,10.2285633,-0.003654283,-0.007035859,-0.035724708,nan,nan,nan
46.3199423,1525096.528,-4462709.775,4279681.436,-10.16103643,-15.71891355,-4.621977653,0.875877833,-0.228844347,-0.375424245,0.198808759,0.575416667,0.62875,10.0985633,-0.063649976,-0.004854197,-0.03790637,nan,nan,nan
46.70307373,1525092.736,-4462715.641,4279679.711,-8.787116685,-14.94963095,-4.861148595,0.869542033,-0.240714375,-0.372591384,0.217091925,0.224416667,0.72675,9.7115633,0.103247134,-0.010308351,-0.065177139,nan,nan,nan
46.78060966,1525094.134,-4462707.366,4279679.923,-3.358458968,-1.91499468,-2.469620773,0.735323446,0.01245267,-0.187508417,-0.651141271,1.075416667,1.02875,9.6385633,0.033433963,-0.029943305,-0.064086308,42.41408,-71.132546,9.8
46.85110308,1525093.879,-4462707.511,4279679.735,-3.40826359,-1.15954214,-2.286784604,0.736969776,0.011167716,-0.187097571,-0.649419225,0.465416667,0.88875,9.6385633,0.026888979,-0.03757912,-0.055359662,nan,nan,nan
46.92180344,1525093.638,-4462707.593,4279679.574,-3.451963579,-0.45351953,-2.084617106,0.737870743,0.012282074,-0.189434457,-0.647696306,0.385416667,0.97875,10.0685633,0.02907064,0.064958973,-0.057541324,nan,nan,nan
46.99478784,1525093.386,-4462707.626,4279679.421,-3.470527823,0.261766943,-1.863562637,0.738806955,0.013313374,-0.191094376,-0.646119167,0.135416667,0.65875,10.2685633,0.017071502,0.047505681,-0.053178001,nan,nan,nan
47.06634809,1525093.137,-4462707.607,4279679.288,-3.476979987,0.947405384,-1.603754174,0.739654982,0.014546501,-0.193139107,-0.644512368,-0.264583333,0.61875,10.8185633,0.020343994,0.06059565,-0.054268831,nan,nan,nan
47.14200468,1525092.875,-4462707.536,4279679.167,-3.522277485,1.656731126,-1.372517088,0.74046177,0.015756244,-0.195579334,-0.64281944,-0.374583333,0.95875,10.0985633,0.026888979,0.064958973,-0.05208717,nan,nan,nan
47.21263688,1525092.626,-4462707.419,4279679.07,-3.538935927,2.391610516,-1.188175821,0.741298813,0.016872909,-0.197430704,-0.641258522,0.695416667,0.69875,10.0485633,0.019253163,0.055141496,-0.053178001,nan,nan,nan
47.29159501,1525092.346,-4462707.23,4279678.976,-3.545137312,3.166466525,-0.991915852,0.742988676,0.016297449,-0.197379517,-0.639330546,0.175416667,0.43875,9.8285633,0.020343994,-0.017944166,-0.060813816,nan,nan,nan
47.36313467,1525092.093,-4462707.003,4279678.905,-3.564667188,3.894430856,-0.821610014,0.74440527,0.016692421,-0.196833419,-0.637839135,0.525416667,0.67875,9.7685633,-0.009108437,-0.011399182,-0.058632155,nan,nan,nan
47.44228421,1525091.81,-4462706.695,4279678.84,-3.610579253,4.678399885,-0.65400345,0.74659581,0.01803768,-0.193874531,-0.636146214,0.325416667,0.85875,9.3685633,-0.063649976,-0.044124105,-0.074994616,nan,nan,nan
47.51383258,1525091.552,-4462706.36,4279678.793,-3.605170905,5.385550289,-0.448535151,0.748171474,0.016737539,-0.193652171,-0.634395884,0.175416667,0.34875,10.2385633,0.033433963,-0.035397459,-0.057541324,nan,nan,nan
47.59255631,1525091.269,-4462705.937,4279678.758,-3.595872367,6.237328368,-0.300636226,0.749199156,0.016788194,-0.195300912,-0.632673956,1.405416667,0.29875,9.5885633,0.034524794,0.027870726,-0.048814678,nan,nan,nan
47.68078724,1525091.011,-4462705.49,4279678.736,-3.594832232,6.964501688,-0.110343712,0.749462616,0.018883898,-0.197098247,-0.63174478,0.495416667,0.46875,10.0985633,-0.006926775,0.073685619,-0.034633877,nan,nan,nan
47.75310617,1525090.691,-4462704.87,4279678.727,-3.601152813,7.860411445,0.127145705,0.750498075,0.018874134,-0.198087521,-0.630204524,0.335416667,0.52875,10.0585633,0.021434825,0.012599096,-0.040088031,nan,nan,nan
47.83054553,1525084.849,-4462713.381,4279675.829,-7.433157292,-2.471613024,-0.221435637,0.973861714,-0.094487278,0.070554093,-0.194133039,-0.314583333,0.61875,10.2985633,-0.076739946,0.001690788,-0.034633877,42.414028,-71.132688,9.7
47.89974332,1525084.299,-4462713.564,4279675.812,-7.726295318,-2.091258177,-0.013222989,0.974238162,-0.094133785,0.069624479,-0.192746637,-0.464583333,0.55875,9.6885633,-0.008017606,0.023507403,-0.040088031,nan,nan,nan
47.96967346,1525083.756,-4462713.711,4279675.811,-7.937740711,-1.688270807,0.188894422,0.974585191,-0.093940318,0.068139844,-0.191613896,0.615416667,0.72875,9.5285633,-0.000381791,0.039869865,-0.036815539,nan,nan,nan
48.04569579,1525083.153,-4462713.839,4279675.826,-8.185287127,-1.285772133,0.45494127,0.975018434,-0.09345569,0.066165592,-0.19033445,0.305416667,0.53875,10.2585633,-0.005835945,0.050778173,-0.0389972,nan,nan,nan
48.11617354,1525082.578,-4462713.929,4279675.858,-8.415761174,-0.896277036,0.723416275,0.975227763,-0.094712079,0.06416545,-0.189323077,0.385416667,0.80875,10.5185633,0.043251441,0.04641485,-0.036815539,nan,nan,nan
48.19438886,1525081.917,-4462713.999,4279675.915,-8.687006468,-0.490620675,0.980399846,0.975657006,-0.094789823,0.060667312,-0.188222669,-0.034583333,0.47875,10.0785633,0.015980671,0.084593927,-0.03790637,nan,nan,nan
48.56352675,1525078.714,-4462714.18,4279676.276,-9.793519604,1.649384726,2.051618339,0.977299779,-0.095021658,0.053922116,-0.181517031,0.485416667,0.83875,9.5485633,0.005072363,0.032561299,-0.040633447,nan,nan,nan
48.66372543,1525078.034,-4462714.066,4279676.419,-9.982196347,2.027520627,2.301908789,0.97759847,-0.095205229,0.054287629,-0.179694324,0.595416667,0.54875,10.2885633,-0.000381791,-0.015762505,-0.05208717,nan,nan,nan
48.73290069,1525077.032,-4462713.862,4279676.65,-10.26556899,2.644917755,2.562723112,0.977846962,-0.097272328,0.055788372,-0.176751441,0.605416667,1.06875,9.1685633,0.031252302,-0.041942444,-0.057541324,nan,nan,nan
48.807123,1525076.272,-4462713.666,4279676.839,-10.44178999,3.010618656,2.807129694,0.978192351,-0.096961227,0.057152261,-0.174561921,0.745416667,-0.05125,10.0685633,-0.018925914,-0.039760782,-0.055359662,nan,nan,nan
48.87940014,1525075.522,-4462713.45,4279677.041,-10.71860372,3.391006539,3.012757693,0.978791436,-0.093904261,0.057375589,-0.172792817,-0.544583333,0.70875,9.6785633,-0.088739084,0.00496328,-0.045542185,nan,nan,nan
48.95206809,1525074.737,-4462713.202,4279677.262,-10.98763497,3.795244356,3.234814717,0.979531662,-0.089570045,0.056893036,-0.171050033,-0.284583333,0.81875,9.7885633,-0.118191515,0.030052388,-0.044451354,nan,nan,nan
49.02350959,1525073.954,-4462712.931,4279677.492,-11.24100124,4.263642692,3.45664443,0.979666438,-0.092562471,0.055044279,-0.169280796,0.155416667,1.67875,9.6585633,0.087975503,0.03223405,-0.058632155,nan,nan,nan
49.09950996,1525073.101,-4462712.608,4279677.754,-11.55796034,4.660093191,3.756542185,0.979854133,-0.094122153,0.055328429,-0.167229376,-0.774583333,0.84875,10.7885633,0.035615625,-0.019034997,-0.055359662,nan,nan,nan
49.17217546,1525072.257,-4462712.268,4279678.029,-11.83987016,5.054007454,3.975056248,0.980426443,-0.09181757,0.054343722,-0.165469889,-0.544583333,0.75875,9.7885633,-0.061468315,0.03332488,-0.048814678,nan,nan,nan
49.25030103,1525071.331,-4462711.872,4279678.339,-12.1006419,5.548964833,4.230964739,0.9808728,-0.090584976,0.055632539,-0.163058067,0.255416667,1.44875,9.8385633,-0.04074253,-0.032124967,-0.057541324,nan,nan,nan
49.65799198,1525066.812,-4462709.8,4279679.92,-13.35004677,7.695469947,5.416354609,0.982259426,-0.09418529,0.052451384,-0.153441857,0.069416667,0.86675,9.8615633,0.018162333,0.009326603,-0.054268831,nan,nan,nan
49.73022828,1525065.392,-4462708.981,4279680.496,-13.60647433,8.271244663,5.75461241,0.983338159,-0.08784807,0.051938082,-0.150436757,0.805416667,0.32875,9.8585633,-0.120373177,0.023507403,-0.053178001,nan,nan,nan
49.80260225,1525064.405,-4462708.382,4279680.913,-13.80476426,8.748989892,5.949644171,0.983516806,-0.08980369,0.050419101,-0.148620001,0.745416667,1.33875,9.1885633,0.05634141,0.028961557,-0.056450493,nan,nan,nan
49.87415166,1525063.418,-4462707.756,4279681.339,-13.93533411,9.152191808,6.221517405,0.983819727,-0.089409151,0.052158578,-0.146233486,1.455416667,0.38875,10.3885633,-0.022198406,-0.051759921,-0.061904647,nan,nan,nan
50.24951951,1525058.192,-4462704.324,4279683.672,-15.11689502,11.32427875,7.436019314,0.984922233,-0.093357763,0.051242046,-0.136333331,0.201416667,0.82675,9.9045633,0.018162333,-0.002672535,-0.054268831,nan,nan,nan
50.32202877,1525057.095,-4462703.502,4279684.211,-15.27052961,11.76543966,7.687010649,0.984950351,-0.096257499,0.049854027,-0.134617517,1.285416667,0.91875,9.9785633,0.081430518,0.022416573,-0.054268831,nan,nan,nan
50.70082561,1525051.461,-4462699.161,4279687.048,-16.13566427,14.04240325,9.036945634,0.986223807,-0.097613409,0.047933671,-0.124645853,1.095416667,1.16875,10.1685633,0.005290529,0.004417865,-0.055468745,nan,nan,nan
50.76992808,1525050.184,-4462698.049,4279687.763,-16.44063946,14.50671427,9.27162989,0.986408701,-0.098637481,0.046057959,-0.12307391,-0.554583333,1.17875,9.6585633,0.02907064,0.039869865,-0.045542185,nan,nan,nan
50.84020575,1525049.033,-4462697.034,4279688.412,-16.7095433,14.93098839,9.503127908,0.986365649,-0.101530676,0.044373889,-0.121676975,-0.494583333,1.44875,9.9485633,0.085793841,0.03332488,-0.047723847,nan,nan,nan
51.21241005,1525042.812,-4462691.476,4279691.95,-17.85225995,16.92558079,10.74622285,0.98752821,-0.102541125,0.041351059,-0.112086759,0.065416667,0.64875,10.0685633,0.004417865,0.010417434,-0.053396167,nan,nan,nan
51.2821655,1525041.574,-4462690.302,4279692.695,-18.03703218,17.37115996,10.96572685,0.987644333,-0.102707763,0.041973616,-0.110670696,0.615416667,1.55875,9.6485633,0.00070904,-0.02230749,-0.0389972,nan,nan,nan
51.45753204,1525038.4,-4462687.244,4279694.625,-18.59607747,18.45038566,11.55322331,0.987784869,-0.106318439,0.036849365,-0.107794092,0.085416667,1.42875,9.9085633,0.045433102,0.049687342,-0.040088031,nan,nan,nan
51.52794125,1525037.092,-4462685.947,4279695.437,-18.78827753,18.84188147,11.80382124,0.987847309,-0.107032846,0.036323236,-0.106687801,0.325416667,0.91875,10.2185633,0.020343994,0.009326603,-0.033543047,nan,nan,nan
51.60045454,1525035.729,-4462684.58,4279696.294,-18.90339711,19.29658029,12.05422777,0.987970516,-0.107705274,0.034035119,-0.105619338,1.565416667,1.32875,9.8985633,0.023616486,0.057323158,-0.036815539,nan,nan,nan
51.68266263,1525034.363,-4462683.185,4279697.165,-19.07284758,19.68862767,12.31459364,0.988034428,-0.108243618,0.034263316,-0.104390202,0.625416667,0.73875,10.2685633,0.012708179,-0.011399182,-0.033543047,nan,nan,nan
51.76067859,1525032.697,-4462681.466,4279698.24,-19.40268096,20.19017294,12.59840467,0.988087664,-0.109451579,0.035091187,-0.102331472,-0.734583333,1.28875,9.9185633,0.023616486,-0.026670813,-0.045542185,nan,nan,nan
52.42912421,1525019.727,-4462667.97,4279706.662,-21.27311769,24.06224206,14.84650394,0.988310691,-0.120683613,0.027430725,-0.089022469,0.259416667,1.17075,9.9705633,0.034088462,0.01488984,-0.043033274,nan,nan,nan
52.80790772,1525011.869,-4462659.082,4279712.146,-22.0489997,26.33574779,16.06832869,0.98828042,-0.126871988,0.023193463,-0.081653984,0.865416667,1.60875,9.7785633,0.034088462,0.01488984,-0.043033274,nan,nan,nan
53.17942247,1525003.458,-4462649.036,4279718.275,-23.10500975,28.39315239,17.14303697,0.98813447,-0.133248102,0.01881516,-0.074035146,-0.024583333,1.00875,9.4985633,0.034088462,0.01488984,-0.043033274,nan,nan,nan
53.24897021,1525001.852,-4462647.061,4279719.467,-23.25773388,28.77815596,17.40764598,0.988289895,-0.132780786,0.019781535,-0.072533017,0.545416667,1.43875,10.3885633,-0.016744253,-0.032124967,-0.0389972,nan,nan,nan
53.32309086,1525000.127,-4462644.927,4279720.758,-23.4151638,29.16564268,17.65282585,0.988555065,-0.13147915,0.019300538,-0.071411526,0.565416667,0.98875,9.9885633,-0.035288376,0.011508265,-0.031361385,nan,nan,nan
53.39445224,1524998.451,-4462642.84,4279722.022,-23.54619953,29.56216647,17.87643179,0.988680548,-0.13123721,0.017338583,-0.070618294,0.875416667,1.17875,9.7285633,-0.003654283,0.051869004,-0.029179723,nan,nan,nan
53.67832095,1524992.011,-4462634.754,4279726.911,-24.49969679,30.88156434,18.95297303,0.988606088,-0.134471203,0.011815442,-0.06660251,-0.854583333,0.93875,10.7285633,0.025798148,0.034415711,-0.034633877,nan,nan,nan
53.7500406,1524990.01,-4462632.232,4279728.459,-24.69040958,31.26342276,19.21272979,0.988796164,-0.133888873,0.011434904,-0.065001224,0.125416667,0.50875,10.0185633,-0.014562591,0.00496328,-0.040088031,nan,nan,nan
53.82484452,1524988.155,-4462629.882,4279729.903,-24.89664266,31.61571018,19.41358207,0.988824057,-0.134289399,0.012393788,-0.063558913,-0.304583333,0.42875,9.5285633,0.008344855,-0.031034136,-0.034633877,nan,nan,nan
53.89635193,1524986.376,-4462627.624,4279731.29,-25.0989005,31.99048221,19.63400819,0.9888963,-0.134265069,0.011887112,-0.062575519,-0.284583333,1.08875,9.7785633,-0.000381791,0.010417434,-0.029179723,nan,nan,nan
53.9696862,1524984.536,-4462625.278,4279732.729,-25.29082472,32.37679696,19.85094013,0.988867807,-0.135056147,0.01042587,-0.061575963,-0.084583333,1.04875,9.6485633,0.023616486,0.034415711,-0.032452216,nan,nan,nan
54.04145194,1524982.719,-4462622.953,4279734.155,-25.60774259,32.68516891,20.1098893,0.989484921,-0.130528661,0.009116681,-0.061633975,-1.984583333,0.52875,10.5385633,-0.1247365,0.044233188,-0.002999785,nan,nan,nan
54.11766417,1524980.766,-4462620.46,4279735.689,-26.04563684,33.09054404,20.36154987,0.990153744,-0.125651731,0.009855309,-0.060910424,-3.224583333,1.49875,9.9785633,-0.130190654,-0.013580843,-0.016089754,nan,nan,nan
54.49125326,1524971.041,-4462608.105,4279743.291,-27.14926601,35.03849936,21.60260003,0.991555786,-0.112922222,0.002261384,-0.0637227,-0.462583333,0.96475,10.0325633,-0.065831638,0.04641485,0.010090185,nan,nan,nan
54.56939975,1524968.915,-4462605.361,4279744.983,-27.39557826,35.47206595,21.8089009,0.991683325,-0.111820039,0.001875468,-0.063694147,-0.794583333,0.89875,9.2985633,-0.02765256,0.011508265,-0.001908954,nan,nan,nan
54.66504157,1524966.944,-4462602.809,4279746.552,-27.57605781,35.84319887,22.01674311,0.991512033,-0.113541997,0.003316028,-0.063254312,-0.214583333,0.48875,9.6385633,0.045433102,-0.044124105,-0.007363108,nan,nan,nan
54.73503838,1524964.39,-4462599.489,4279748.591,-27.84742335,36.29775624,22.27934633,0.99143635,-0.113963334,0.003968599,-0.063644113,-0.634583333,0.31875,9.6385633,0.008344855,-0.013580843,0.010090185,nan,nan,nan
54.80431034,1524962.435,-4462596.94,4279750.156,-27.97073255,36.5985822,22.48280181,0.991478058,-0.113510252,0.004876835,-0.063740878,0.465416667,-0.41125,9.8485633,-0.014562591,-0.024489151,0.005726862,nan,nan,nan
54.87843774,1524960.361,-4462594.226,4279751.823,-28.17822102,36.9447202,22.69330958,0.9912633,-0.11501905,0.005516953,-0.06432148,-0.504583333,0.06875,9.6985633,0.039978948,-0.017944166,0.017726,nan,nan,nan
54.95050592,1524958.337,-4462591.573,4279753.453,-28.44268067,37.28431072,22.91538459,0.990921946,-0.117353876,0.005267208,-0.065375999,-1.354583333,0.32875,9.9285633,0.066158887,0.006054111,0.028634308,nan,nan,nan
55.02370673,1524956.249,-4462588.836,4279755.135,-28.70487799,37.62441485,23.13176526,0.990751105,-0.118125067,0.005934107,-0.066509421,-1.264583333,0.23875,9.8085633,0.020343994,-0.015762505,0.032997631,nan,nan,nan
55.20055472,1524951.173,-4462582.183,4279759.225,-29.26653068,38.44522533,23.62014352,0.99041124,-0.118912847,0.004608975,-0.0701717,-0.864583333,0.16875,9.6285633,0.010526517,0.01914408,0.039542616,nan,nan,nan
55.27272653,1524949.072,-4462579.423,4279760.921,-29.43076775,38.74650229,23.85472757,0.990388664,-0.117947796,0.003628389,-0.072148784,-0.064583333,-0.24125,10.2285633,-0.024380068,0.035506542,0.051541754,nan,nan,nan
55.34413357,1524946.96,-4462576.643,4279762.633,-29.64545993,39.07143871,24.0792613,0.990229187,-0.118315939,0.002704443,-0.073757596,-0.744583333,0.12875,10.0085633,0.012708179,0.030052388,0.041724277,nan,nan,nan
55.4224004,1524944.636,-4462573.579,4279764.521,-29.8848718,39.42507879,24.30670861,0.989912352,-0.119889341,0.001990871,-0.075472631,-0.834583333,0.07875,9.7885633,0.04216061,0.020234911,0.041724277,nan,nan,nan
55.49518522,1524942.474,-4462570.727,4279766.279,-30.12194112,39.72617726,24.54279679,0.989823474,-0.11976677,0.001266937,-0.076836233,-1.114583333,-0.10125,10.2185633,-0.001472622,0.024598234,0.035179293,nan,nan,nan
55.57400406,1524940.097,-4462567.592,4279768.216,-30.36268313,40.09016061,24.75036587,0.989944433,-0.117758679,0.001757677,-0.078357025,-0.854583333,0.14875,9.4985633,-0.051650838,-0.003763366,0.039542616,nan,nan,nan
55.66506827,1524937.919,-4462564.716,4279769.992,-30.63845444,40.42974749,24.94418849,0.989794445,-0.118119105,0.001748702,-0.079698028,-1.614583333,0.36875,9.5285633,0.010526517,0.003872449,0.037360954,nan,nan,nan
55.73744128,1524935.108,-4462561.007,4279772.28,-30.88859239,40.83691556,25.17169063,0.989524839,-0.119376373,0.0016934,-0.081160383,-0.564583333,-0.13125,9.3985633,0.02797981,0.002781618,0.0319068,nan,nan,nan
55.80848542,1524932.919,-4462558.113,4279774.064,-31.09485516,41.1385171,25.41964781,0.989365876,-0.119768388,0.000710768,-0.082523884,-0.754583333,-0.01125,10.4285633,0.013799009,0.031143219,0.035179293,nan,nan,nan
55.88220967,1524930.613,-4462555.062,4279775.949,-31.33065592,41.49350642,25.61517923,0.989029694,-0.121752602,0.001148674,-0.083637603,-0.974583333,0.34875,9.4585633,0.053068918,-0.012490012,0.0319068,nan,nan,nan
55.95429173,1524928.369,-4462552.09,4279777.784,-31.54224584,41.79431467,25.82134997,0.989113431,-0.120248958,0.002108384,-0.084796009,-0.834583333,-0.15125,9.8385633,-0.044015022,-0.019034997,0.035179293,nan,nan,nan
56.02678515,1524926.064,-4462549.036,4279779.67,-31.79784436,42.13441714,26.02313918,0.989101381,-0.119220714,0.002084849,-0.086374379,-1.284583333,0.31875,9.6085633,-0.02765256,0.008235772,0.042815108,nan,nan,nan
56.09854364,1524923.784,-4462546.015,4279781.536,-31.98783694,42.45696858,26.26685581,0.988650441,-0.122199499,0.002592948,-0.087354827,-0.464583333,0.15875,10.2785633,0.082521349,-0.017944166,0.029725139,nan,nan,nan
56.17503594,1524921.339,-4462542.769,4279783.544,-32.23620151,42.79046113,26.49655942,0.988390018,-0.123674296,0.003134916,-0.088204381,-1.074583333,0.09875,9.9185633,0.037797287,-0.014671674,0.024270985,nan,nan,nan
56.247138,1524919.016,-4462539.687,4279785.453,-32.45139071,43.10998679,26.70877882,0.988081293,-0.12527906,0.003038852,-0.089393968,-0.794583333,0.13875,9.8485633,0.045433102,0.002781618,0.032997631,nan,nan,nan
56.42574684,1524913.217,-4462531.982,4279790.227,-32.86935068,43.89481852,27.24430313,0.987867647,-0.124530012,0.002099648,-0.092765186,-0.164583333,0.02875,9.9185633,-0.006926775,0.015871588,0.036270124,nan,nan,nan
56.80937192,1524900.935,-4462515.58,4279800.407,-33.99302546,45.53470553,28.33173715,0.986906983,-0.126556533,0.003936063,-0.099912754,-0.852583333,0.11675,9.8225633,0.010526517,-0.005945028,0.039542616,nan,nan,nan
56.88570977,1524898.003,-4462511.653,4279802.85,-34.2099559,45.90885229,28.58836647,0.9865941,-0.12799496,0.004161205,-0.101153626,-0.354583333,0.03875,9.9085633,0.033433963,-0.004854197,0.029725139,nan,nan,nan
56.95807695,1524895.527,-4462508.331,4279804.919,-34.42742412,46.21386769,28.80351319,0.986495219,-0.127508214,0.004033254,-0.102725712,-0.854583333,0.04875,9.9285633,-0.012380929,0.010417434,0.042815108,nan,nan,nan
57.03053674,1524893.03,-4462504.978,4279807.009,-34.61380016,46.52074647,29.01368913,0.986424697,-0.126738303,0.003860389,-0.1043495,-0.434583333,-0.05125,9.8585633,-0.020016745,0.012599096,0.043905939,nan,nan,nan
57.10631929,1524890.408,-4462501.454,4279809.206,-34.84475251,46.83436071,29.2266393,0.986175447,-0.126869214,0.002850103,-0.106555463,-0.934583333,-0.07125,9.7885633,0.007254025,0.03332488,0.054814247,nan,nan,nan
57.17904532,1524887.886,-4462498.065,4279811.321,-35.07496679,47.15310835,29.42794409,0.986106718,-0.125861369,0.001932946,-0.108391517,-1.034583333,0.20875,9.6885633,-0.024380068,0.034415711,0.047178431,nan,nan,nan
57.25076631,1524885.355,-4462494.662,4279813.445,-35.22525375,47.44029438,29.63172246,0.985896727,-0.126341428,0.003064397,-0.10970915,-0.074583333,-0.43125,9.8585633,0.010526517,-0.027761643,0.040633447,nan,nan,nan
57.32984881,1524882.573,-4462490.916,4279815.785,-35.46907429,47.7508869,29.86039626,0.985690793,-0.126142746,0.003282037,-0.111762677,-1.044583333,-0.23125,9.9185633,-0.004745114,0.001690788,0.052632585,nan,nan,nan
57.40176054,1524880.026,-4462487.487,4279817.929,-35.67761442,48.05070753,30.06883128,0.985227149,-0.128317101,0.003178347,-0.113367037,-0.814583333,-0.04125,9.8685633,0.061795564,0.001690788,0.04499677,nan,nan,nan
57.48052672,1524877.229,-4462483.72,4279820.287,-35.98961432,48.352769,30.32014638,0.98496749,-0.12895827,0.004315231,-0.114848539,-1.924583333,0.01875,10.2185633,0.013799009,-0.025579982,0.041724277,nan,nan,nan
57.55223476,1524874.643,-4462480.245,4279822.465,-36.24411116,48.67348906,30.50459638,0.984583811,-0.130113927,0.00461293,-0.116806707,-1.364583333,0.34875,9.4585633,0.032343133,-0.004854197,0.055905078,nan,nan,nan
57.65692877,1524871.807,-4462476.437,4279824.852,-36.51868524,48.9885489,30.69306672,0.984480035,-0.129223075,0.006186874,-0.118584067,-1.434583333,-0.08125,9.4185633,-0.02656173,-0.031034136,0.050450924,nan,nan,nan
57.72963631,1524868.173,-4462471.561,4279827.907,-36.75026704,49.37565879,30.98013514,0.984003167,-0.129917597,0.00319225,-0.121856456,-0.274583333,-0.38125,9.9385633,0.022525656,0.066049804,0.058086739,nan,nan,nan
57.80077353,1524865.578,-4462468.075,4279830.095,-36.93356812,49.47717285,31.26634702,0.983282622,-0.13466552,0.007341527,-0.122337995,-1.144583333,-2.29125,11.6885633,0.120700426,-0.130299737,0.03081597,nan,nan,nan
58.37827669,1524844.243,-4462439.494,4279848.156,-38.69609367,51.6012429,32.93167692,0.980858756,-0.141493257,0.002100276,-0.133758549,-1.004583333,-0.29525,9.9845633,0.026888979,0.020234911,0.037360954,nan,nan,nan
58.44730716,1524841.566,-4462435.925,4279850.434,-38.86997118,51.85752466,33.12409189,0.980329441,-0.144113728,0.002529773,-0.134829604,-0.604583333,-0.26125,9.8885633,0.074885533,-0.017944166,0.034088462,nan,nan,nan
58.51744113,1524838.831,-4462432.275,4279852.765,-39.09388972,52.10653524,33.37809459,0.980320347,-0.142928443,0.001732684,-0.136163414,-1.244583333,0.04875,10.7085633,-0.029834222,0.03223405,0.034088462,nan,nan,nan
58.60997894,1524835.936,-4462428.417,4279855.236,-39.31585081,52.41062209,33.60181216,0.979793599,-0.144817355,0.000884757,-0.137955265,-0.964583333,0.33875,9.9885633,0.055250579,0.022416573,0.046087601,nan,nan,nan
58.68397547,1524832.302,-4462423.573,4279858.342,-39.51567471,52.77640269,33.84136259,0.97920367,-0.147148399,0.001757854,-0.139658271,-0.234583333,-0.10125,9.6485633,0.048705594,-0.020125828,0.040633447,nan,nan,nan
58.75618211,1524829.45,-4462419.764,4279860.784,-39.70022264,53.03659049,34.04144142,0.978903742,-0.148081873,0.002812591,-0.140752662,-0.684583333,-0.22125,9.9085633,0.022525656,-0.027761643,0.035179293,nan,nan,nan
58.83510349,1524826.314,-4462415.574,4279863.473,-39.91290946,53.32360874,34.26549942,0.978666407,-0.148119299,0.003156451,-0.142347372,-0.784583333,-0.12125,9.9585633,0.00070904,-0.002672535,0.041724277,nan,nan,nan
58.90621367,1524823.475,-4462411.781,4279865.911,-40.09893089,53.59023941,34.50002622,0.978183286,-0.149510096,0.002184274,-0.144220036,-0.654583333,0.09875,10.3685633,0.044342271,0.028961557,0.049360093,nan,nan,nan
59.28104288,1524808.489,-4462391.753,4279878.805,-41.07933667,54.85413183,35.60608546,0.976267521,-0.154837964,0.001341118,-0.151410485,-0.802583333,-0.29725,10.1515633,0.030161471,0.006054111,0.038451785,nan,nan,nan
59.35003026,1524805.611,-4462387.91,4279881.299,-41.31149546,55.09134599,35.80223415,0.975959149,-0.155255476,0.001423042,-0.152962259,-1.494583333,-0.01125,9.9685633,0.012708179,0.002781618,0.04499677,nan,nan,nan
59.42088537,1524802.709,-4462384.04,4279883.814,-41.51984316,55.32064233,36.00833719,0.976002933,-0.153642989,0.001711166,-0.154302236,-1.194583333,-0.17125,10.1485633,-0.046196684,0.00496328,0.038451785,nan,nan,nan
59.49462458,1524799.62,-4462379.925,4279886.493,-41.77711257,55.62966837,36.1758579,0.975644449,-0.154717516,0.002659838,-0.155477735,-1.434583333,0.54875,9.2085633,0.025798148,-0.024489151,0.036270124,nan,nan,nan
59.5667226,1524796.615,-4462375.923,4279889.095,-41.98734192,55.88422527,36.37556711,0.97526379,-0.155953549,0.003585003,-0.15660836,-1.064583333,0.00875,9.9185633,0.031252302,-0.025579982,0.036270124,nan,nan,nan
59.75040803,1524789.326,-4462366.222,4279895.409,-42.41620591,56.58615956,36.82158114,0.97466057,-0.159281813,0.007601255,-0.156870327,-0.474583333,0.28875,9.5885633,0.031252302,-0.05066909,0.011181016,nan,nan,nan
59.82223135,1524785.859,-4462361.596,4279898.419,-42.65626293,56.91282251,37.05999617,0.974341401,-0.160632901,0.007638478,-0.157472408,-0.824583333,0.54875,9.9185633,0.033433963,-0.003763366,0.015544339,nan,nan,nan
59.89197183,1524782.873,-4462357.613,4279901.013,-42.84389502,57.17894993,37.28782275,0.974080867,-0.161566508,0.007495616,-0.158134574,-0.614583333,0.42875,10.3085633,0.02797981,0.002781618,0.018816831,nan,nan,nan
59.96261649,1524779.862,-4462353.594,4279903.634,-42.96033251,57.47598683,37.51570518,0.974367998,-0.159390284,0.008446114,-0.158525723,0.485416667,0.50875,10.1985633,-0.065831638,-0.014671674,0.014453508,nan,nan,nan
