# t [sec],r_ecef_X,r_ecef_Y,r_ecef_Z,v_ecef_X,v_ecef_Y,v_ecef_Z,q_e2b_scalar,q_e2b_i,q_e2b_j,q_e2b_k,accel_X [m/s^2],accel_Y [m/s^2],accel_Z [m/s^2],gyro_X [rad/s],gyro_Y [rad/s],gyro_Z [rad/s],gps_lat [deg],gps_long [deg],gps_alt [m]
0.0,1526197.8557744164,-4463177.651200566,4278834.406304744,0.0,0.0,0.0,0.901797015,-0.39979036,-0.066508461,-0.150021455,0.0,0.0,0.0,0.0,0.0,0.0,0.0,0.0,0.0
0.3916240270000344,1526197.8436597192,-4463177.147855669,4278834.659401406,-0.8561981985568908,2.6529150147962475,-2.325124083269519,0.901799005349841,-0.39979124237448954,-0.06650315672342369,-0.1500094902773307,0.0,0.0,0.0,0.0,0.0,0.0,42.40359,-71.121711,32.4
0.4797436620001463,1526197.762092014,-4463176.895119574,4278834.437893072,-1.079308296171211,3.3054926343601823,-2.9549538289208406,0.9017995264025492,-0.3997914733708742,-0.06650176804765182,-0.15000635787647473,0.0,0.0,0.0,0.0,0.0,0.0,nan,nan,nan
0.5703362009999182,1526197.663810942,-4463176.594123686,4278834.168817007,-1.292554868578659,3.9292486105736426,-3.5569637534579472,0.9018000244299343,-0.3997916941595268,-0.06650044070961818,-0.1500033638336053,0.0,0.0,0.0,0.0,0.0,0.0,nan,nan,nan
0.952248352999959,1526197.1701651376,-4463175.093485579,4278832.810359988,-2.186904513123986,6.545375714032213,-6.081873167531446,0.9018021131142427,-0.3997926201282749,-0.06649487367073487,-0.14999080640463835,0.0,0.0,0.0,0.0,0.0,0.0,nan,nan,nan
1.039209407999806,1526196.9799190885,-4463174.52408172,4278832.281277747,-2.3905881885569134,7.141294057269351,-6.657002414631614,0.9018025888544383,-0.3997928310364296,-0.06649360559779371,-0.1499879460445408,0.0,0.0,0.0,0.0,0.0,0.0,nan,nan,nan
1.123813553999753,1526196.777657549,-4463173.919875133,4278831.718045834,-2.5886783589989815,7.720871480083325,-7.216358383898166,0.9018030515383426,-0.3997930361563866,-0.06649237230221383,-0.14998516413085847,0.0,0.0,0.0,0.0,0.0,0.0,nan,nan,nan
1.205616266999641,1526196.5665199459,-4463173.290145954,4278831.129465717,-2.779631285067132,8.279589091691326,-7.7555800683153135,0.9018034975594752,-0.3997932338892982,-0.06649118339941756,-0.14998248235285663,0.0,0.0,0.0,0.0,0.0,0.0,nan,nan,nan
1.2807033640001464,1526196.329734973,-4463172.584842956,4278830.4688008195,-2.979061416848322,8.863133215010242,-8.318759678735002,0.901803963388935,-0.3997934404037628,-0.066489941672715,-0.14997968142130388,0.0,0.0,0.0,0.0,0.0,0.0,nan,nan,nan
1.3514604619995225,1526196.1191470576,-4463171.95831383,4278829.880753105,-3.1445477629322376,9.347375512052434,-8.78610091347116,0.901804349939731,-0.3997936117719084,-0.0664889112551159,-0.14997735713435736,0.0,0.0,0.0,0.0,0.0,0.0,nan,nan,nan
1.4303869519999353,1526198.82177224,-4463176.893596191,4278831.734973178,-0.9643380734944258,5.341847750421163,-7.2671264290272966,0.9018047527444369,-0.3997937903458402,-0.06648783749246506,-0.14997493507507276,0.0,0.0,0.0,0.0,0.0,0.0,42.403568,-71.121698,31.0
1.5031383479999931,1526198.7465419115,-4463176.476865822,4278831.168047197,-1.147007926013185,5.87623151255469,-7.782880866086938,0.9018051793260531,-0.39979397946070233,-0.06648670032791218,-0.14997237000171942,0.0,0.0,0.0,0.0,0.0,0.0,nan,nan,nan
1.5759803649998503,1526198.6632172053,-4463176.049985368,4278830.602657677,-1.317104775975978,6.373852594367458,-8.263152331644745,0.9018055765529891,-0.3997941555618619,-0.06648564139794289,-0.1499699814001398,0.0,0.0,0.0,0.0,0.0,0.0,nan,nan,nan
1.9494743429995651,1526198.1715550174,-4463173.670689225,4278827.518104626,-2.1911261277505516,8.930904586295755,-10.73104338320187,0.9018076176167528,-0.3997950604191687,-0.06648020004445945,-0.14995770747655418,0.0,0.0,0.0,0.0,0.0,0.0,nan,nan,nan
2.0250164230001246,1526198.0055494867,-4463172.994060191,4278826.705092299,-2.3684887949257525,9.449892082369475,-11.231925072177457,0.901808031848983,-0.3997952440592229,-0.06647909567032707,-0.149955216367724,0.0,0.0,0.0,0.0,0.0,0.0,nan,nan,nan
2.1079764659998546,1526197.83330612,-4463172.306836663,4278825.888274169,-2.53872986124994,9.948058763715563,-11.712710483526914,0.9018084294548723,-0.39979542032838244,-0.06647803560553014,-0.14995282520634234,0.0,0.0,0.0,0.0,0.0,0.0,nan,nan,nan
2.2843674380001175,1526197.3597940796,-4463170.45137119,4278823.703674096,-2.975340573512629,11.225731914551458,-12.945800501133952,0.9018094491816623,-0.39979587240011744,-0.06647531681268756,-0.1499466924940132,0.0,0.0,0.0,0.0,0.0,0.0,nan,nan,nan
2.3559172140003284,1526197.1460138331,-4463169.644794707,4278822.773509514,-3.1435214551605455,11.717930735844973,-13.420820072935182,0.9018098419964966,-0.3997960465452761,-0.0664742694603376,-0.14994433000777704,0.0,0.0,0.0,0.0,0.0,0.0,nan,nan,nan
2.4342860179995114,1526198.875140829,-4463176.0456097,4278830.453365865,-2.150946464307699,7.9059457315796315,-8.757771264988094,0.9018102403058373,-0.3997962231262942,-0.06647320744080673,-0.14994193443715143,0.0,0.0,0.0,0.0,0.0,0.0,42.403568,-71.121696,31.0
2.5068428790000326,1526198.7076646634,-4463175.430039997,4278829.77147165,-2.3332342580429075,8.439310348598157,-9.272529024042408,0.9018106659692589,-0.3997964118340965,-0.06647207246731264,-0.14993937430611406,0.0,0.0,0.0,0.0,0.0,0.0,nan,nan,nan
2.5795859419995395,1526198.5373117048,-4463174.813873197,4278829.094470295,-2.504161478568268,8.93945306278101,-9.755221969398315,0.9018110651109343,-0.39979658878411045,-0.0664710081923468,-0.14993697364796083,0.0,0.0,0.0,0.0,0.0,0.0,nan,nan,nan
2.6555172150001454,1526198.347092937,-4463174.13482284,4278828.353453265,-2.6819884114648977,9.459802817862519,-10.257415102574745,0.9018114803705324,-0.3997967728796239,-0.06646990092182022,-0.1499344760058074,0.0,0.0,0.0,0.0,0.0,0.0,nan,nan,nan
2.727527848000136,1526198.1571414107,-4463173.464833374,4278827.626972999,-2.8477860997410223,9.944970649968305,-10.72565213666798,0.9018118675457454,-0.39979694452458997,-0.06646886851993276,-0.1499321472429518,0.0,0.0,0.0,0.0,0.0,0.0,nan,nan,nan
2.806265137000082,1526197.9304271261,-4463172.67310716,4278826.773096175,-3.0341454227228537,10.49032565149339,-11.25197413291042,0.9018123027428634,-0.3997971374589309,-0.06646770804806544,-0.1499295295958781,0.0,0.0,0.0,0.0,0.0,0.0,nan,nan,nan
2.879229817000123,1526197.7080376684,-4463171.904212626,4278825.948376171,-3.205716007155541,10.992422474854422,-11.736545736927138,0.9018127034111914,-0.39979731508575017,-0.06646663963029581,-0.14992711959290697,0.0,0.0,0.0,0.0,0.0,0.0,nan,nan,nan
3.092581777000305,1526197.1387347968,-4463169.9520691205,4278823.86408387,-3.621406355908178,12.20897186505961,-12.910628296697649,0.9018136741750312,-0.3997977454509201,-0.06646405092890044,-0.14992128032456875,0.0,0.0,0.0,0.0,0.0,0.0,nan,nan,nan
3.370441244000176,1526196.0034180013,-4463166.12453654,4278819.816580855,-4.355174629084137,14.356582119676013,-14.983252163034349,0.901815387783805,-0.3997985051388081,-0.0664594810564498,-0.14991097217873225,0.0,0.0,0.0,0.0,0.0,0.0,nan,nan,nan
3.448117158000059,1526198.312593147,-4463174.951369861,4278829.610784281,-3.127891593324141,9.599370711728252,-9.66968603161069,0.9018157834270761,-0.39979868053788725,-0.06645842590433915,-0.14990859209877294,0.0,0.0,0.0,0.0,0.0,0.0,42.40357,-71.121699,30.8
3.5224209099997097,1526198.0633993568,-4463174.186604364,4278828.840416881,-3.314389528611933,10.145122973373388,-10.196388352063483,0.9018162188705399,-0.39979887358143973,-0.0664572645880805,-0.14990597254702706,0.0,0.0,0.0,0.0,0.0,0.0,nan,nan,nan
3.5988279149996742,1526197.8101433828,-4463173.411404896,4278828.061300172,-3.493256455968902,10.668564350670975,-10.701556557830731,0.9018166365036953,-0.3997990587292136,-0.06645615075185253,-0.1499034600947869,0.0,0.0,0.0,0.0,0.0,0.0,nan,nan,nan
3.6731399589998546,1526197.5502970682,-4463172.617822413,4278827.26526356,-3.6673753833484017,11.178129597012088,-11.19333116679618,0.9018170430572174,-0.39979923896509434,-0.06645506644680704,-0.14990101425528898,0.0,0.0,0.0,0.0,0.0,0.0,nan,nan,nan
4.046978215000308,1526196.1812695563,-4463168.445037969,4278823.086804385,-4.541157347723596,13.735374304072991,-13.661284685775673,0.9018190832308137,-0.39980014342776643,-0.06644962489476906,-0.14988873988382884,0.0,0.0,0.0,0.0,0.0,0.0,nan,nan,nan
4.428263433999746,1526194.4942726835,-4463163.342476723,4278818.011766729,-5.410569374103679,16.280282501891502,-16.117286650294577,0.9018211133547958,-0.39980104343517997,-0.06644420969248929,-0.14987652494885262,0.0,0.0,0.0,0.0,0.0,0.0,nan,nan,nan
4.507431164999616,1526197.4556310608,-4463173.544648822,4278829.284723474,-3.830137094913712,10.834018491628246,-10.100981968538136,0.9018215714997965,-0.3998012465429215,-0.06644298756260307,-0.14987376822134338,0.0,0.0,0.0,0.0,0.0,0.0,42.403578,-71.121703,30.5
4.584010829000363,1526197.141188644,-4463172.655209392,4278828.455464076,-4.022305483743096,11.396416108888824,-10.643740639111307,0.901822020112992,-0.39980144542496276,-0.066441790837007,-0.14987106879764966,0.0,0.0,0.0,0.0,0.0,0.0,nan,nan,nan
4.656527567999547,1526196.8488958175,-4463171.82705482,4278827.682004913,-4.192397213906301,11.894223934650222,-11.124163033006184,0.9018224171956959,-0.39980162146218046,-0.06644073155624841,-0.14986867940480347,0.0,0.0,0.0,0.0,0.0,0.0,nan,nan,nan
4.734499553000205,1526196.5233919895,-4463170.903569944,4278826.818308687,-4.37412463162167,12.42610437824609,-11.637466236577968,0.9018228414481666,-0.39980180954447114,-0.06643959977667331,-0.1498661264782085,0.0,0.0,0.0,0.0,0.0,0.0,nan,nan,nan
4.80739161099973,1526196.2047560725,-4463169.998382393,4278825.970569988,-4.544621393725775,12.925133371728519,-12.11906354702354,0.9018232394885255,-0.3998019860062425,-0.06643853790521284,-0.14986373124158156,0.0,0.0,0.0,0.0,0.0,0.0,nan,nan,nan
4.88462087500011,1526195.8518948206,-4463168.994827125,4278825.029600969,-4.726342549268012,13.457033648638184,-12.632382046232095,0.9018236637392827,-0.3998021740877735,-0.0664374060918075,-0.14986117823867653,0.0,0.0,0.0,0.0,0.0,0.0,nan,nan,nan
4.956979036000121,1526195.5103305236,-4463168.022311445,4278824.11668138,-4.895477085779876,13.952111049011279,-13.110162218707304,0.9018240586114247,-0.39980234914499085,-0.06643635263667715,-0.14985880198655285,0.0,0.0,0.0,0.0,0.0,0.0,nan,nan,nan
5.035482751000018,1526195.1282873694,-4463166.93348835,4278823.0935639925,-5.078114273062628,14.486730775253381,-13.626101314383748,0.9018244850136476,-0.3998025381803233,-0.06643521504510413,-0.14985623594998101,0.0,0.0,0.0,0.0,0.0,0.0,nan,nan,nan
5.118340048000391,1526194.757854523,-4463165.876725814,4278822.099581733,-5.248826476415345,14.986462012561736,-14.108369118092092,0.9018248835811504,-0.3998027148757914,-0.06643415169522948,-0.14985383737853258,0.0,0.0,0.0,0.0,0.0,0.0,nan,nan,nan
5.194995793000089,1526194.301415192,-4463164.573499137,4278820.872714245,-5.4523267836945655,15.582195625762251,-14.683282344816218,0.9018253587063794,-0.39980292551131524,-0.06643288407191,-0.14985097803263525,0.0,0.0,0.0,0.0,0.0,0.0,nan,nan,nan
5.369122645000061,1526193.3516988324,-4463161.859306335,4278818.315099118,-5.859932617610603,16.775484072103684,-15.83486138398744,0.9018263103774031,-0.39980334741213713,-0.06643034496047778,-0.1498452506231241,0.0,0.0,0.0,0.0,0.0,0.0,nan,nan,nan
5.445218787000158,1526192.905531292,-4463160.582043105,4278817.109453659,-6.038089218337862,17.297090621756656,-16.338231682945857,0.9018267263533563,-0.39980353182522965,-0.06642923508208327,-0.14984274709846887,0.0,0.0,0.0,0.0,0.0,0.0,nan,nan,nan
5.522616502999881,1526196.8921699198,-4463172.696765884,4278829.639635187,-4.122766964806672,11.491283242079817,-10.352056209700905,0.9018271188744834,-0.3998037058401802,-0.06642818776676634,-0.1498403846957672,0.0,0.0,0.0,0.0,0.0,0.0,42.403585,-71.121705,30.3
5.5948991670002215,1526196.571611241,-4463171.803280852,4278828.8347288,-4.304760537045169,12.023928593905016,-10.866098502787002,0.9018275436577972,-0.3998038941578076,-0.06642705435115043,-0.14983782807879625,0.0,0.0,0.0,0.0,0.0,0.0,nan,nan,nan
5.667661728999519,1526196.2585171221,-4463170.928755708,4278828.044415028,-4.474995578081011,12.522178415867147,-11.346944699404798,0.9018279410025092,-0.39980407031118037,-0.06642599412978963,-0.14983543656425746,0.0,0.0,0.0,0.0,0.0,0.0,nan,nan,nan
5.740502454999842,1526195.931805665,-4463170.014533764,4278827.215994804,-4.645871739428871,13.02232203551651,-11.829616800061864,0.9018283398495138,-0.39980424713055895,-0.06642492988242457,-0.14983303596836256,0.0,0.0,0.0,0.0,0.0,0.0,nan,nan,nan
5.816836588000115,1526195.5771844957,-4463169.020534935,4278826.313035623,-4.824517946625943,13.5452262866883,-12.334252604530917,0.9018287568388086,-0.3998044319928925,-0.06642381720707324,-0.1498305261346825,0.0,0.0,0.0,0.0,0.0,0.0,nan,nan,nan
5.8910138869996445,1526195.2206943468,-4463168.019659866,4278825.4016410345,-4.997450199059896,14.051423998614137,-12.82276368523455,0.9018291604971325,-0.3998046109452556,-0.06642274008523642,-0.1498280964981669,0.0,0.0,0.0,0.0,0.0,0.0,nan,nan,nan
6.275055498999791,1526193.3529164402,-4463162.767993865,4278820.609182129,-5.872123028399534,16.611808077504712,-15.293678452719325,0.9018312021209893,-0.3998055160508664,-0.06641729194131957,-0.1498158072575721,0.0,0.0,0.0,0.0,0.0,0.0,nan,nan,nan
6.651594443000249,1526196.3829531432,-4463172.031032216,4278829.9806761425,-3.937361853894934,10.85226353159516,-9.654666894324743,0.9018332841913184,-0.3998064390874632,-0.0664117353915752,-0.1498032734886909,0.0,0.0,0.0,0.0,0.0,0.0,42.403591,-71.121708,30.2
6.832831728999736,1526195.6470499441,-4463170.002715859,4278828.176193721,-4.374853615051116,12.132626324049111,-10.89031716694078,0.9018343050162747,-0.3998068916460442,-0.06640901087839138,-0.14979712787313257,0.0,0.0,0.0,0.0,0.0,0.0,nan,nan,nan
7.21774722400005,1526194.007694709,-4463165.456350145,4278824.095348959,-5.251914581974507,14.699660514944691,-13.367683013467193,0.9018363515489972,-0.3998077989278844,-0.06640354847414706,-0.1497848064658774,0.0,0.0,0.0,0.0,0.0,0.0,nan,nan,nan
7.293315095000253,1526193.5581252223,-4463164.198043535,4278822.951061043,-5.452237559963846,15.28608249839825,-13.93361032437447,0.9018368190325944,-0.39980800617567164,-0.06640230064803561,-0.14978199177604212,0.0,0.0,0.0,0.0,0.0,0.0,nan,nan,nan
7.36580562600011,1526193.1606433918,-4463163.083649677,4278821.935265807,-5.622837339784773,15.785513699340141,-14.415585016593033,0.9018372171600783,-0.39980818267606777,-0.06640123793106588,-0.14977959463222132,0.0,0.0,0.0,0.0,0.0,0.0,nan,nan,nan
7.443986852999842,1526192.721941042,-4463161.852039809,4278820.810539866,-5.805410563608638,16.32001576539278,-14.931402882205008,0.9018376432359037,-0.3998083715666995,-0.0664001005925588,-0.1497770291664839,0.0,0.0,0.0,0.0,0.0,0.0,nan,nan,nan
7.516554214999815,1526192.299603107,-4463160.6647746395,4278819.724294924,-5.975640351611642,16.81839968666027,-15.412363295238869,0.9018380405119858,-0.39980854768964685,-0.06639904011213822,-0.14977463706759053,0.0,0.0,0.0,0.0,0.0,0.0,nan,nan,nan
7.593408327000361,1526191.8407215478,-4463159.3732555695,4278818.540748244,-6.155325130437215,17.344483358469624,-15.920053241029906,0.9018384598597107,-0.39980873359753455,-0.06639792069525698,-0.14977211202721175,0.0,0.0,0.0,0.0,0.0,0.0,nan,nan,nan
7.873206010999638,1526195.477983068,-4463171.02109939,4278830.543971431,-4.327005973219029,11.610986905749991,-10.137664441665411,0.9018399586228425,-0.39980939803869264,-0.06639391970245628,-0.1497630870888298,0.0,0.0,0.0,0.0,0.0,0.0,42.403603,-71.121715,30.1
7.945597670999632,1526195.1416193123,-4463170.118508734,4278829.755910841,-4.508957430473002,12.14351557960956,-10.651592198529944,0.9018403830921549,-0.3998095862171149,-0.06639278652396932,-0.14976053100674466,0.0,0.0,0.0,0.0,0.0,0.0,nan,nan,nan
8.017274816999816,1526194.8186279384,-4463169.24862898,4278828.99290244,-4.676619328190475,12.634240301108651,-11.12517436451826,0.901840774232187,-0.39980975961978965,-0.06639174230492824,-0.14975817558823418,0.0,0.0,0.0,0.0,0.0,0.0,nan,nan,nan
8.106493700999636,1526194.4490162637,-4463168.250095126,4278828.1136360215,-4.861597346832163,13.175665569027313,-11.647684090887125,0.9018412057750664,-0.3998099509341104,-0.0663905902035988,-0.14975557682237134,0.0,0.0,0.0,0.0,0.0,0.0,nan,nan,nan
8.17884619599954,1526194.0478849672,-4463167.162968523,4278827.152583452,-5.054705028080021,13.74090742842412,-12.193176200081277,0.9018416562909978,-0.3998101506596846,-0.06638938742749648,-0.14975286375070346,0.0,0.0,0.0,0.0,0.0,0.0,nan,nan,nan
8.255322156000148,1526193.6611124142,-4463166.11155092,4278826.219594116,-5.233780751829914,14.265097237402147,-12.699048561475305,0.9018420740779188,-0.39981033587562687,-0.06638827201047186,-0.1497503477327002,0.0,0.0,0.0,0.0,0.0,0.0,nan,nan,nan
8.326087254000413,1526193.2905113825,-4463165.101447515,4278825.320381726,-5.399492761885299,14.750186535731302,-13.167184975439136,0.9018424606932606,-0.39981050727238726,-0.06638723979888239,-0.149748019399095,0.0,0.0,0.0,0.0,0.0,0.0,nan,nan,nan
8.39931359000002,1526192.8962673645,-4463164.024462498,4278824.358979584,-5.570361294054316,15.250387431594875,-13.649903171812083,0.901842859344645,-0.3998106840050423,-0.06638617543538815,-0.14974561854125043,0.0,0.0,0.0,0.0,0.0,0.0,nan,nan,nan
8.773519125000348,1526190.811462219,-4463158.316738257,4278819.250264571,-6.446189044234506,17.81437670197451,-16.124268579190023,0.9018449026906159,-0.39981158987411164,-0.06638071960933487,-0.1497333119722546,0.0,0.0,0.0,0.0,0.0,0.0,nan,nan,nan
8.848357314999703,1526190.327816097,-4463156.980157194,4278818.04048932,-6.621735836511802,18.328382405095404,-16.62029808083302,0.901845312293539,-0.39981177146187213,-0.0663796258955841,-0.1497308449097779,0.0,0.0,0.0,0.0,0.0,0.0,nan,nan,nan
8.927060856000026,1526195.1499883283,-4463170.628393512,4278831.18653029,-4.230418835078906,11.588703247942968,-10.166332479417449,0.9018457114364569,-0.3998119484124369,-0.06637856009412132,-0.14972844080834402,0.0,0.0,0.0,0.0,0.0,0.0,42.403609,-71.121716,30.0
8.998659171999861,1526194.824983275,-4463169.7380828215,4278830.405494285,-4.410240113041663,12.114995647216391,-10.674242956531309,0.9018461308388527,-0.39981213434456164,-0.0663774401763442,-0.14972591463810705,0.0,0.0,0.0,0.0,0.0,0.0,nan,nan,nan
9.100577189999967,1526194.4991662286,-4463168.843058514,4278829.616909033,-4.583154774183444,12.621092627828174,-11.16266152262267,0.9018465341391491,-0.39981231313820176,-0.06637636323721306,-0.14972348541371608,0.0,0.0,0.0,0.0,0.0,0.0,nan,nan,nan
9.173361668000325,1526194.0358730233,-4463167.567241584,4278828.488519203,-4.8197457209899275,13.313585568729977,-11.830962623689842,0.9018470859624528,-0.3998125577760015,-0.06637488966566646,-0.14972016151560577,0.0,0.0,0.0,0.0,0.0,0.0,nan,nan,nan
9.250434063999819,1526193.6646338056,-4463166.541767342,4278827.5772434715,-5.000013424707377,13.841247898552027,-12.34018882148497,0.9018475064274601,-0.3998127441792099,-0.06637376684660583,-0.14971762880101688,0.0,0.0,0.0,0.0,0.0,0.0,nan,nan,nan
9.323364244999539,1526193.3011468798,-4463165.5355475135,4278826.68014642,-5.1701476679385845,14.339266828211887,-12.820805500821688,0.9018479032630546,-0.39981292010687747,-0.06637270711014881,-0.14971523838026335,0.0,0.0,0.0,0.0,0.0,0.0,nan,nan,nan
9.401234150999699,1526192.8983605541,-4463164.418430369,4278825.68132676,-5.352466942487426,14.87297242609779,-13.335859993138808,0.9018483285260398,-0.39981310863715575,-0.06637157143997632,-0.1497126766777461,0.0,0.0,0.0,0.0,0.0,0.0,nan,nan,nan
9.4738760930004,1526192.5079232205,-4463163.333516859,4278824.708538385,-5.523171028452049,15.372695297436444,-13.818117469781319,0.9018487267028497,-0.39981328515941933,-0.0663705080856761,-0.14971027809631496,0.0,0.0,0.0,0.0,0.0,0.0,nan,nan,nan
9.551357055999688,1526192.0803604727,-4463162.143477332,4278823.63884269,-5.704323645443667,15.903023876747831,-14.32990912769852,0.9018491492574313,-0.3998134724889911,-0.0663693796099733,-0.14970773262218126,0.0,0.0,0.0,0.0,0.0,0.0,nan,nan,nan
9.624313735999749,1526191.6658509006,-4463160.987870457,4278822.597547548,-5.874363025805502,16.400836572267366,-14.810319605592563,0.9018495458957743,-0.3998136483292118,-0.0663683203283261,-0.14970534322733067,0.0,0.0,0.0,0.0,0.0,0.0,nan,nan,nan
9.702422759000001,1526191.2073481546,-4463159.70776084,4278821.441580139,-6.056999285464943,16.935546824182612,-15.326335938346983,0.9018499719238886,-0.399813837198692,-0.0663671825375745,-0.1497027767414767,0.0,0.0,0.0,0.0,0.0,0.0,nan,nan,nan
10.100205173999711,1526194.6954690653,-4463170.404396135,4278831.790221378,-4.018392151516913,10.870250939295115,-9.65378261557992,0.9018520225541695,-0.39981474629708774,-0.06636170565102519,-0.14969042266685204,0.0,0.0,0.0,0.0,0.0,0.0,42.403615,-71.121721,29.8
10.173602253000354,1526194.3100784633,-4463169.361866588,4278830.864359254,-4.24288495264414,11.527253622501926,-10.28784101525224,0.9018525459879717,-0.399814978349074,-0.06636030757348411,-0.14968726905866278,0.0,0.0,0.0,0.0,0.0,0.0,nan,nan,nan
10.251347956000245,1526193.9806709567,-4463168.466918006,4278830.065635721,-4.424607267436726,12.059108132818182,-10.801119304818423,0.9018529697059775,-0.3998151661944223,-0.0663591758119735,-0.14968471617281537,0.0,0.0,0.0,0.0,0.0,0.0,nan,nan,nan
10.324081894000301,1526193.6586085015,-4463167.589148356,4278829.279433739,-4.594974929720723,12.557748954562177,-11.282342113535192,0.9018533669550384,-0.39981534230539045,-0.0663581147316697,-0.14968232272078055,0.0,0.0,0.0,0.0,0.0,0.0,nan,nan,nan
10.40245478199995,1526193.2984703938,-4463166.604915794,4278828.395163117,-4.778415076803341,13.094669633364285,-11.8005057533061,0.9018537946914574,-0.39981553193220715,-0.06635697219798574,-0.1496797455364139,0.0,0.0,0.0,0.0,0.0,0.0,nan,nan,nan
10.474989061000088,1526192.9532340902,-4463165.658837384,4278827.542586913,-4.947508490464142,13.589616598192006,-12.278160149394285,0.9018541889813982,-0.3998157067313194,-0.06635591898582661,-0.14967736983235422,0.0,0.0,0.0,0.0,0.0,0.0,nan,nan,nan
10.554656147999594,1526192.5583169668,-4463164.574094971,4278826.562526809,-5.134318567771757,14.136440183492494,-12.805876795497914,0.9018546245888236,-0.3998158998475604,-0.06635475538801658,-0.14967474513417053,0.0,0.0,0.0,0.0,0.0,0.0,nan,nan,nan
10.626835774999563,1526192.187207363,-4463163.552310162,4278825.636915396,-5.303473888783764,14.631604265719009,-13.283737114596384,0.9018550190352111,-0.39981607471602953,-0.06635370172178967,-0.1496723684058817,0.0,0.0,0.0,0.0,0.0,0.0,nan,nan,nan
10.705352031000075,1526191.7703131975,-4463162.402152628,4278824.59271067,-5.487431791523935,15.170118134137718,-13.803430473993906,0.9018554480050771,-0.3998162648896657,-0.06635255581508984,-0.14966978361308833,0.0,0.0,0.0,0.0,0.0,0.0,nan,nan,nan
10.778494954000053,1526191.3707880445,-4463161.297657119,4278823.587720015,-5.657809861676309,15.668897432504473,-14.284776066995388,0.9018558453147798,-0.3998164410275179,-0.06635149446400795,-0.14966738955026623,0.0,0.0,0.0,0.0,0.0,0.0,nan,nan,nan
10.856090287999905,1526190.9303092156,-4463160.077782687,4278822.475603916,-5.839990448795634,16.20224694705281,-14.79948169136912,0.9018562701531,-0.39981662936953105,-0.06635035955520512,-0.14966482956515126,0.0,0.0,0.0,0.0,0.0,0.0,nan,nan,nan
10.929089465999823,1526190.504951216,-4463158.897685663,4278821.397677851,-6.010423438552133,16.701222877322103,-15.28101344093001,0.9018566676028889,-0.3998168055694871,-0.06634929779378891,-0.1496624345767484,0.0,0.0,0.0,0.0,0.0,0.0,nan,nan,nan
11.006868583999676,1526190.0382260708,-4463157.6007918995,4278820.211067075,-6.192123065807213,17.233202575324153,-15.794393290929863,0.9018570913324402,-0.3998169934199538,-0.0663481658084572,-0.14965988118603343,0.0,0.0,0.0,0.0,0.0,0.0,nan,nan,nan
11.104177113999867,1526194.0140567545,-4463170.274752484,4278832.823702085,-4.179274932828724,10.859639961880257,-9.485350779914729,0.9018574860386225,-0.3998171684035969,-0.06634711134064361,-0.1496575026496257,0.0,0.0,0.0,0.0,0.0,0.0,42.403625,-71.121729,29.8
11.17727045599986,1526193.6029706048,-4463169.206565381,4278831.890694232,-4.40951744808139,11.533471955032768,-10.135648713987763,0.9018580227604106,-0.39981740634649715,-0.06634567744682272,-0.14965426825155892,0.0,0.0,0.0,0.0,0.0,0.0,nan,nan,nan
11.255702339999516,1526193.257345043,-4463168.302552012,4278831.096244652,-4.592981237328036,12.070425656735146,-10.653846398300619,0.9018584504450766,-0.3998175959503703,-0.06634453483132044,-0.14965169088263677,0.0,0.0,0.0,0.0,0.0,0.0,nan,nan,nan
11.328083291999974,1526192.9271582444,-4463167.434816004,4278830.330345717,-4.761243308947804,12.56290605575169,-11.129122402332168,0.9018588426985108,-0.39981776984664547,-0.06634348685720907,-0.14964932699390912,0.0,0.0,0.0,0.0,0.0,0.0,nan,nan,nan
11.408344982000017,1526192.5443595531,-4463166.424772264,4278829.435576596,-4.949416648171392,13.113682937041457,-11.66065645308403,0.9018592813751657,-0.3998179643235567,-0.06634231483514082,-0.14964668329333897,0.0,0.0,0.0,0.0,0.0,0.0,nan,nan,nan
11.784251783999935,1526190.6846462756,-4463161.497385462,4278825.054155679,-5.8288142411750545,15.687748112556946,-14.14478002013758,0.9018613314261691,-0.3998188731651434,-0.06633683738672468,-0.1496343279513255,0.0,0.0,0.0,0.0,0.0,0.0,nan,nan,nan
11.86000060599963,1526190.2421495167,-4463160.306443805,4278823.98034906,-6.006459811098612,16.207823731706696,-14.64667407719849,0.9018617455984368,-0.3998190567786147,-0.06633573072015317,-0.14963183167149827,0.0,0.0,0.0,0.0,0.0,0.0,nan,nan,nan
11.93819516700023,1526189.7709164121,-4463159.034868978,4278822.831253268,-6.190040864397109,16.745295552960506,-15.16535422074772,0.9018621736154059,-0.3998192465298066,-0.06633458704066464,-0.14962925190256918,0.0,0.0,0.0,0.0,0.0,0.0,nan,nan,nan
12.328817525999511,1526193.2107045567,-4463169.655617514,4278833.616746691,-4.009121083452099,10.339057643603704,-8.897103123805971,0.9018642221027499,-0.39982015467818194,-0.06632911311507518,-0.14961690450690684,0.0,0.0,0.0,0.0,0.0,0.0,42.403635,-71.121735,29.7
12.404145530000278,1526192.8479906765,-4463168.720220543,4278832.811806474,-4.220899890021711,10.958831298926055,-9.495233106251892,0.901864715634244,-0.39982037347368776,-0.06632779424101637,-0.1496139295560116,0.0,0.0,0.0,0.0,0.0,0.0,nan,nan,nan
12.777710798999578,1526191.2718471133,-4463164.62803834,4278829.2661524825,-5.0949606123654725,13.516892675340234,-11.96395104265656,0.901866752528348,-0.3998212764824746,-0.0663223507231338,-0.14960165075024554,0.0,0.0,0.0,0.0,0.0,0.0,nan,nan,nan
13.159282298999642,1526189.3804364784,-4463159.61013997,4278824.824755196,-5.963775712295721,16.06005494579184,-14.418244781300306,0.9018687773519038,-0.3998221741400696,-0.06631693900826283,-0.14958944368172922,0.0,0.0,0.0,0.0,0.0,0.0,nan,nan,nan
13.232848955000009,1526188.8786381877,-4463158.258830244,4278823.611589085,-6.1606650943420505,16.636484078220104,-14.974520869896061,0.9018692362627567,-0.3998223775873336,-0.06631571242118592,-0.14958667690024754,0.0,0.0,0.0,0.0,0.0,0.0,nan,nan,nan
13.307888970999556,1526188.4190582763,-4463157.017763937,4278822.494503695,-6.335220176261889,17.147546039515724,-15.467713088047288,0.9018696431239909,-0.3998225579596311,-0.0663146249339854,-0.14958422388284293,0.0,0.0,0.0,0.0,0.0,0.0,nan,nan,nan
13.388741179000135,1526192.3861765796,-4463168.76849589,4278833.85484853,-4.375733861702406,11.393395335041356,-9.944523874129388,0.9018700561209313,-0.3998227410520488,-0.06631352102809847,-0.14958173383022214,0.0,0.0,0.0,0.0,0.0,0.0,42.403643,-71.121741,29.6
13.465356884000357,1526192.0280187374,-4463167.835936001,4278833.040880102,-4.567319270484958,11.954114128752375,-10.485657216783977,0.9018705025184204,-0.3998229389518091,-0.06631232782413565,-0.14957904235018757,0.0,0.0,0.0,0.0,0.0,0.0,nan,nan,nan
13.537451889000295,1526191.6970065073,-4463166.9695726605,4278832.280941815,-4.7369507782650695,12.450599161740962,-10.964798486020733,0.9018708977698778,-0.39982311417718697,-0.06631127131320755,-0.14957665920517804,0.0,0.0,0.0,0.0,0.0,0.0,nan,nan,nan
13.615706863999549,1526191.3267700868,-4463165.996443429,4278831.42394162,-4.919883263951151,12.98603259758962,-11.481525711579827,0.9018713240193819,-0.39982330314481507,-0.06631013192481994,-0.1495740891155769,0.0,0.0,0.0,0.0,0.0,0.0,nan,nan,nan
13.688802996999584,1526190.9681964095,-4463165.049988155,4278830.5871386565,-5.09046002223286,13.485320106067288,-11.963367956319885,0.9018717214854114,-0.3998234793519711,-0.06630906945811921,-0.14957169253628153,0.0,0.0,0.0,0.0,0.0,0.0,nan,nan,nan
13.766492036000272,1526190.5730585724,-4463164.003214348,4278829.658503657,-5.27212637267633,14.017085945475191,-12.476551873309827,0.9018721447976373,-0.3998236670174265,-0.06630793788269847,-0.14956914007019234,0.0,0.0,0.0,0.0,0.0,0.0,nan,nan,nan
13.8448525900003,1526190.159152245,-4463162.902755035,4278828.678989246,-5.455858435828843,14.554918364614082,-12.995588381932395,0.9018725729299676,-0.399823856819761,-0.06630679340225232,-0.1495665584945634,0.0,0.0,0.0,0.0,0.0,0.0,nan,nan,nan
13.91697246900003,1526189.7645068388,-4463161.84993599,4278827.738963159,-5.625135569339476,15.050455934587475,-13.473806279074239,0.901872967385933,-0.3998240316924763,-0.06630573892727087,-0.14956417994198734,0.0,0.0,0.0,0.0,0.0,0.0,nan,nan,nan
14.206171249000363,1526188.1963293508,-4463157.654164014,4278823.982730189,-6.277519619430165,16.960294294160157,-15.316886727968214,0.9018744875834819,-0.39982470563607586,-0.06630167491506538,-0.14955501285232603,0.0,0.0,0.0,0.0,0.0,0.0,nan,nan,nan
14.280449376999968,1526187.6639260254,-4463156.21574285,4278822.683688223,-6.475965848426947,17.541318053160943,-15.877593196017996,0.9018749500423672,-0.39982491065627607,-0.06630043855223429,-0.14955222401992266,0.0,0.0,0.0,0.0,0.0,0.0,nan,nan,nan
14.658953829999518,1526191.7800696723,-4463168.36123627,4278833.937559629,-4.24745719354623,11.219542232839231,-10.18513703732489,0.9018769838235158,-0.3998258122850078,-0.06629500104948662,-0.14953995878234438,0.0,0.0,0.0,0.0,0.0,0.0,42.403646,-71.121746,29.5
14.732084545000362,1526191.4468490058,-4463167.481042975,4278833.138517285,-4.431088359326249,11.756973978732523,-10.703798203452521,0.9018774115636001,-0.39982600191344936,-0.06629385738832885,-0.14953737905476358,0.0,0.0,0.0,0.0,0.0,0.0,nan,nan,nan
14.810379393000403,1526191.099679454,-4463166.55990057,4278832.299889724,-4.61447188023531,12.293701026740727,-11.221777264356628,0.9018778387336188,-0.39982619128916586,-0.06629271523114014,-0.14953480271964772,0.0,0.0,0.0,0.0,0.0,0.0,nan,nan,nan
14.983700652000152,1526190.2998337776,-4463164.428982045,4278830.354772219,-5.020166200844078,13.481131887896169,-12.367726456410713,0.9018787837551968,-0.39982661024211336,-0.06629018838273773,-0.14952910297154312,0.0,0.0,0.0,0.0,0.0,0.0,nan,nan,nan
15.06073321599979,1526189.91268223,-4463163.389327008,4278829.4009821955,-5.2006531839589085,14.009444763936461,-12.877578875735228,0.9018792041994994,-0.3998267966361428,-0.0662890641448361,-0.14952656705651043,0.0,0.0,0.0,0.0,0.0,0.0,nan,nan,nan
15.14232906199959,1526189.5401396018,-4463162.385777034,4278828.4785120925,-5.368296774485066,14.500181126372413,-13.351165975185369,0.9018795947314268,-0.39982696976922877,-0.06628801987292955,-0.14952421151875267,0.0,0.0,0.0,0.0,0.0,0.0,nan,nan,nan
15.222532128999774,1526189.0566539217,-4463161.079845147,4278827.276064122,-5.579063900501759,15.11717236785182,-13.946593733216794,0.9018800857272989,-0.39982718744062656,-0.06628670693914242,-0.14952124996717817,0.0,0.0,0.0,0.0,0.0,0.0,nan,nan,nan
15.597580298000139,1526186.9662476243,-4463155.415627479,4278822.050447802,-6.455880341286651,17.684039967795066,-16.423739721268106,0.9018821283018504,-0.39982809296770533,-0.06628124476294688,-0.14950892907432686,0.0,0.0,0.0,0.0,0.0,0.0,nan,nan,nan
15.67827230399962,1526191.378436989,-4463168.182342901,4278833.923375068,-4.227827932038958,11.277306936435952,-10.484753029740936,0.9018825395785084,-0.39982827529747655,-0.06628014488640635,-0.14950644811060101,0.0,0.0,0.0,0.0,0.0,0.0,42.403648,-71.12175,29.3
15.751121862999753,1526191.0484232043,-4463167.3020642325,4278833.104961197,-4.410535535028115,11.812037519558602,-11.000807609670268,0.9018829650735415,-0.3998284639306278,-0.06627900696594953,-0.14950388133217427,0.0,0.0,0.0,0.0,0.0,0.0,nan,nan,nan
15.824009463000039,1526190.7255955068,-4463166.437486032,4278832.299760703,-4.581855113758061,12.313457422944003,-11.484713039114236,0.9018833640543049,-0.39982864080930525,-0.06627793993555711,-0.14950147445867487,0.0,0.0,0.0,0.0,0.0,0.0,nan,nan,nan
15.902129318000334,1526190.367125976,-4463165.474120933,4278831.4012338845,-4.764970577286192,12.849420352549,-12.001953031346028,0.901883790512198,-0.3998288298693177,-0.06627679940107208,-0.14949890178385072,0.0,0.0,0.0,0.0,0.0,0.0,nan,nan,nan
15.976742017000106,1526190.0125676983,-4463164.518004147,4278830.508176576,-4.939122071228548,13.35916554844097,-12.493889245756074,0.9018841961004586,-0.39982900967727264,-0.06627571466238007,-0.14949645496618735,0.0,0.0,0.0,0.0,0.0,0.0,nan,nan,nan
16.360192529000415,1526188.1700969571,-4463159.534553385,4278825.847505095,-5.812167857118736,15.914680172181193,-14.960112655108418,0.9018862293348094,-0.39982991106359456,-0.06627027653779524,-0.14948418832594673,0.0,0.0,0.0,0.0,0.0,0.0,nan,nan,nan
16.433437988999685,1526187.6842449023,-4463158.204209828,4278824.5969559625,-6.007774605946827,16.487347572797336,-15.512760454331689,0.9018866849316276,-0.39983011304165966,-0.06626905792759871,-0.14948143953771262,0.0,0.0,0.0,0.0,0.0,0.0,nan,nan,nan
16.50482939700032,1526187.2531872126,-4463157.021243019,4278823.483915756,-6.175664460798783,16.978889308032933,-15.987116647828222,0.9018870759787843,-0.3998302864031604,-0.06626801195361584,-0.1494790801606243,0.0,0.0,0.0,0.0,0.0,0.0,nan,nan,nan
16.57751383699997,1526186.8044771738,-4463155.7875947,4278822.322327432,-6.345673376805086,17.47665218963274,-16.467474765735574,0.9018874719672739,-0.39983046195528404,-0.0662669527452559,-0.14947669093108598,0.0,0.0,0.0,0.0,0.0,0.0,nan,nan,nan
16.655065547999584,1526186.3154532742,-4463154.440771424,4278821.053275553,-6.525987079462312,18.004604378381913,-16.976964750335544,0.9018878919637879,-0.39983064815079705,-0.06626582930011021,-0.14947415680425288,0.0,0.0,0.0,0.0,0.0,0.0,nan,nan,nan
16.734387522999896,1526190.4363274025,-4463167.85978559,4278834.574753459,-4.475861888802326,11.385117480390218,-10.327360278005624,0.901888297434962,-0.39983082790684443,-0.06626474469010776,-0.14947171027687126,0.0,0.0,0.0,0.0,0.0,0.0,42.403658,-71.121761,29.2
16.80693126099959,1526190.0882827304,-4463166.974474654,4278833.771694113,-4.657872610930922,11.917815183171092,-10.84145037874596,0.9018887212117102,-0.39983101577823466,-0.0662636110943469,-0.14946915325355195,0.0,0.0,0.0,0.0,0.0,0.0,nan,nan,nan
16.884682631000032,1526189.7254822485,-4463166.046199139,4278832.927256372,-4.84018015870044,12.451401410505278,-11.356395976870191,0.9018891456862282,-0.39983120395896476,-0.06626247561208772,-0.149466591974906,0.0,0.0,0.0,0.0,0.0,0.0,nan,nan,nan
16.957099080999797,1526189.3747928855,-4463165.1440480035,4278832.104442522,-5.009758815753669,12.947750570742658,-11.835403516106208,0.9018895405299702,-0.39983137900359156,-0.06626141937510922,-0.14946420944783773,0.0,0.0,0.0,0.0,0.0,0.0,nan,nan,nan
17.028966679000405,1526189.0148420602,-4463164.2137530185,4278831.254069596,-5.177919013406932,13.439964977505552,-12.31041905277059,0.901889932076748,-0.3998315525865874,-0.06626037194067629,-0.14946184677644908,0.0,0.0,0.0,0.0,0.0,0.0,nan,nan,nan
17.115869068999928,1526188.6164181032,-4463163.179591608,4278830.306823055,-5.358002499821188,13.967097594124674,-12.81913087666524,0.9018903513917311,-0.39983173847995984,-0.06625925020410951,-0.14945931650361424,0.0,0.0,0.0,0.0,0.0,0.0,nan,nan,nan
17.186826868000026,1526188.1834006296,-4463162.050813241,4278829.270819868,-5.547137597560362,14.52074602232706,-13.353429866581036,0.9018907917895536,-0.39983193371991005,-0.06625807204647055,-0.14945665896319227,0.0,0.0,0.0,0.0,0.0,0.0,nan,nan,nan
17.56235822799954,1526186.100937051,-4463156.599546855,4278824.257778303,-6.425681183888533,17.092574506026384,-15.835365643533779,0.9018928374301373,-0.3998328406062416,-0.06625259924155165,-0.14944431409539818,0.0,0.0,0.0,0.0,0.0,0.0,nan,nan,nan
17.637474324000323,1526185.6185685669,-4463155.3164269775,4278823.0690356465,-6.601330296311077,17.606857833728633,-16.331664049174204,0.9018932464638296,-0.3998330219416471,-0.06625150487746058,-0.1494418455659653,0.0,0.0,0.0,0.0,0.0,0.0,nan,nan,nan
17.710220762999597,1526185.1386753551,-4463154.036471093,4278821.881781811,-6.771422992397685,18.10489036150468,-16.812278166091705,0.9018936425643514,-0.3998331975434376,-0.06625044509818975,-0.1494394550486377,0.0,0.0,0.0,0.0,0.0,0.0,nan,nan,nan
17.89482379400033,1526188.4472244047,-4463167.716993931,4278835.662418427,-4.897860601480602,10.74670089753935,-9.478142147443101,0.9018946188738598,-0.3998336303671484,-0.06624783287734297,-0.14943356272806713,0.0,0.0,0.0,0.0,0.0,0.0,42.40367,-71.121785,29.1
17.964527266000005,1526188.0781120202,-4463166.907101466,4278834.948127039,-5.074264237676295,11.262972887319096,-9.976375966349572,0.9018950294751109,-0.399833812397494,-0.0662467342380243,-0.1494310845551113,0.0,0.0,0.0,0.0,0.0,0.0,nan,nan,nan
18.039788649000002,1526187.6979224575,-4463166.063222525,4278834.200646451,-5.2496396096978835,11.776253975058037,-10.47172152979123,0.9018954376892108,-0.39983399336955255,-0.06624564196741127,-0.14942862074788393,0.0,0.0,0.0,0.0,0.0,0.0,nan,nan,nan
18.424035504999665,1526185.7334883118,-4463161.656505657,4278830.282090346,-6.125501689319833,14.339781107034005,-12.945662413922086,0.9018974763614654,-0.3998348971666404,-0.06624018675441616,-0.14941631556174795,0.0,0.0,0.0,0.0,0.0,0.0,nan,nan,nan
18.500690042000315,1526185.2005014513,-4463160.4087850135,4278829.155673553,-6.3291280092949895,14.93587367995487,-13.520912963022697,0.901897950376619,-0.3998351073100385,-0.0662389182874221,-0.1494134543127952,0.0,0.0,0.0,0.0,0.0,0.0,nan,nan,nan
18.576489611999932,1526184.7233582311,-4463159.282792483,4278828.136352734,-6.505548094275929,15.452344597347752,-14.019323627706424,0.9018983610669736,-0.399835289379886,-0.06623781925773681,-0.1494109752592993,0.0,0.0,0.0,0.0,0.0,0.0,nan,nan,nan
18.64665935799985,1526184.264182406,-4463158.192132177,4278827.1468381835,-6.670715551762837,15.935890785442767,-14.485959147606035,0.9018987455682383,-0.3998354598394204,-0.06623679029449588,-0.14940865425291183,0.0,0.0,0.0,0.0,0.0,0.0,nan,nan,nan
18.71750574500038,1526183.793094946,-4463157.0667359205,4278826.123836432,-6.83596711578606,16.419699513272075,-14.95284638973213,0.9018991302707507,-0.3998356303881732,-0.06623576077626012,-0.14940633199463654,0.0,0.0,0.0,0.0,0.0,0.0,nan,nan,nan
18.79262267499962,1526183.2798151178,-4463155.833859811,4278825.001099254,-7.011661461536215,16.934099031503713,-15.449252751683142,0.9018995392894557,-0.39983581171693444,-0.06623466616642688,-0.14940386291088922,0.0,0.0,0.0,0.0,0.0,0.0,nan,nan,nan
19.181612888999553,1526180.7545399414,-4463167.555890528,4278838.202728671,-7.840798836802173,10.71500669409564,-8.690983398802294,0.9019015762000636,-0.3998367147330379,-0.06622921473948747,-0.1493915662648634,0.0,0.0,0.0,0.0,0.0,0.0,42.403706,-71.121883,28.8
19.550902156999655,1526177.7410401616,-4463163.43772974,4278834.862472518,-8.74043085778122,13.348089160814823,-11.23191026838894,0.9019036695512074,-0.399837642770717,-0.06622361177914099,-0.14937892780875953,0.0,0.0,0.0,0.0,0.0,0.0,nan,nan,nan
19.620776040000237,1526177.1295992828,-4463162.503957995,4278834.076739047,-8.904152001263471,13.827363694876626,-11.69440181741706,0.9019040505566197,-0.39983781168044796,-0.0662225919464685,-0.1493766273979646,0.0,0.0,0.0,0.0,0.0,0.0,nan,nan,nan
19.694527564000055,1526176.4709924073,-4463161.481199534,4278833.211747811,-9.077254749329521,14.334118779059711,-12.183409924905392,0.9019044534000923,-0.3998379902715661,-0.0662215136425684,-0.14937419509509872,0.0,0.0,0.0,0.0,0.0,0.0,nan,nan,nan
19.76643799300018,1526175.8187794173,-4463160.451273777,4278832.336353385,-9.24540270194363,14.82638625058957,-12.658436049797507,0.9019048447187776,-0.39983816375344255,-0.06622046617015866,-0.14937183233804677,0.0,0.0,0.0,0.0,0.0,0.0,nan,nan,nan
19.83907535199978,1526175.1476738672,-4463159.375055636,4278831.417502474,-9.415269481384776,15.323702868581371,-13.13833277253671,0.9019052400433034,-0.3998383390112136,-0.06621940795772586,-0.1493694453549961,0.0,0.0,0.0,0.0,0.0,0.0,nan,nan,nan
19.91104473700034,1526174.4701843206,-4463158.272416086,4278830.472114439,-9.583653147638893,15.816694556555104,-13.614054349906716,0.9019056319220357,-0.39983851274137355,-0.06621835895191258,-0.14936707913908454,0.0,0.0,0.0,0.0,0.0,0.0,nan,nan,nan
19.987595153000257,1526173.736532518,-4463157.061609904,4278829.429925687,-9.762786232242645,16.341176360911245,-14.120161104510952,0.9019060488237227,-0.39983869756486823,-0.06621724294432457,-0.14936456178896237,0.0,0.0,0.0,0.0,0.0,0.0,nan,nan,nan
20.059785153999655,1526173.0347064347,-4463155.886877248,4278828.414857127,-9.930998852337055,16.833702337310463,-14.595429793662065,0.901906440316162,-0.39983887112377436,-0.0662161949373688,-0.14936219782614846,0.0,0.0,0.0,0.0,0.0,0.0,nan,nan,nan
20.14815490500041,1526172.2556782372,-4463154.566372736,4278827.269931874,-10.114546958573685,17.371149093035292,-15.11404346909069,0.9019068675058034,-0.3998390605081901,-0.06621505135122789,-0.14935961826778127,0.0,0.0,0.0,0.0,0.0,0.0,nan,nan,nan
20.22607710200009,1526174.2732208732,-4463167.509381485,4278840.009528688,-8.978811300526976,11.235413555032988,-9.140367835431586,0.9019073174547296,-0.3998392599823961,-0.06621384681656671,-0.14935690122937664,0.0,0.0,0.0,0.0,0.0,0.0,42.403728,-71.12195,28.6
20.29834551699969,1526173.5770142963,-4463166.638200596,4278839.300795206,-9.160303296574467,11.766644636740553,-9.652994094108442,0.9019077396996044,-0.39983944717466663,-0.06621271642649101,-0.14935435143704037,0.0,0.0,0.0,0.0,0.0,0.0,nan,nan,nan
20.370781134000026,1526172.9107310346,-4463165.782342649,4278838.598675616,-9.330547734960415,12.264972418549629,-10.13386755128298,0.9019081357833084,-0.39983962276900137,-0.06621165605435834,-0.1493519595824093,0.0,0.0,0.0,0.0,0.0,0.0,nan,nan,nan
20.447504875999584,1526172.1966548858,-4463164.843692045,4278837.823120599,-9.509669289093313,12.789302990835345,-10.639831210675126,0.9019085525261766,-0.3998398075220874,-0.0662105403558829,-0.14934944292954452,0.0,0.0,0.0,0.0,0.0,0.0,nan,nan,nan
20.519056860999626,1526171.5169240567,-4463163.92954001,4278837.062608211,-9.676958486750275,13.279015488801544,-11.112387652878327,0.9019089417462814,-0.3998399800736079,-0.06620949832353923,-0.14934709244351213,0.0,0.0,0.0,0.0,0.0,0.0,nan,nan,nan
20.591701510999883,1526170.8111752681,-4463162.96109015,4278836.2521723565,-9.847643122921609,13.778684739868215,-11.59455032980469,0.9019093388720519,-0.3998401561299181,-0.06620843510853154,-0.14934469417627969,0.0,0.0,0.0,0.0,0.0,0.0,nan,nan,nan
20.663915344999623,1526170.1028920352,-4463161.970070141,4278835.41824433,-10.01596648168995,14.27145874486925,-12.070057629822545,0.9019097305097964,-0.39984032975324185,-0.06620738656930006,-0.14934232901282485,0.0,0.0,0.0,0.0,0.0,0.0,nan,nan,nan
20.740282726999794,1526169.3377823115,-4463160.879887594,4278834.496224626,-10.194733477356788,14.794825027922737,-12.575083464222352,0.9019101464526322,-0.3998405141516525,-0.0662062729388994,-0.14933981702486412,0.0,0.0,0.0,0.0,0.0,0.0,nan,nan,nan
20.81217523899977,1526168.602094642,-4463159.812241209,4278833.5887625655,-10.363606400778014,15.28924311515112,-13.05217373910967,0.9019105393809123,-0.39984068834710473,-0.06620522090916514,-0.1493374439879704,0.0,0.0,0.0,0.0,0.0,0.0,nan,nan,nan
20.890418715000123,1526167.7910528788,-4463158.615725805,4278832.567317174,-10.54673722555046,15.825423384379096,-13.56956071547766,0.9019109654900047,-0.3998408772524846,-0.06620408002141098,-0.149334870516286,0.0,0.0,0.0,0.0,0.0,0.0,nan,nan,nan
20.963090197999918,1526167.0271246578,-4463157.469448309,4278831.58443781,-10.716229216439153,16.321689791499832,-14.048430970470635,0.9019113598707621,-0.3998410520918583,-0.06620302406683357,-0.14933248862622267,0.0,0.0,0.0,0.0,0.0,0.0,nan,nan,nan
21.042069103999893,1526166.180456059,-4463156.1799030835,4278830.474498378,-10.901101965118324,16.863009327865882,-14.57077318879956,0.9019117900460969,-0.3998412427999105,-0.0662018722525344,-0.14932989050780676,0.0,0.0,0.0,0.0,0.0,0.0,nan,nan,nan
21.429377383999963,1526167.3810207634,-4463167.512837222,4278842.791396491,-9.073083297805894,10.37133894135643,-7.9229639281417015,0.901913817062642,-0.39984214142971536,-0.0661964445451368,-0.14931764736535216,0.0,0.0,0.0,0.0,0.0,0.0,42.40376,-71.122025,28.5
21.79902742899958,1526163.8918723483,-4463163.524431115,4278839.744538425,-9.973252430435098,13.006029225320468,-10.465378399730897,0.9019159106004807,-0.3998430695501612,-0.06619083823478011,-0.1493050013527149,0.0,0.0,0.0,0.0,0.0,0.0,nan,nan,nan
21.97252647299956,1526162.158236519,-4463161.263612147,4278837.9253570605,-10.380079186320232,14.19698376601519,-11.614599846523609,0.9019168568607958,-0.3998434890522735,-0.06618830407271616,-0.1492992851073687,0.0,0.0,0.0,0.0,0.0,0.0,nan,nan,nan
22.04457918800017,1526161.4101502118,-4463160.2404437335,4278837.088299563,-10.548737369970844,14.690759066855236,-12.091068323944436,0.9019172491703116,-0.3998436629734112,-0.06618725340670274,-0.14929691514658566,0.0,0.0,0.0,0.0,0.0,0.0,nan,nan,nan
22.12674930399953,1526160.6492165565,-4463159.180725153,4278836.216109794,-10.71754396691052,15.184985984127945,-12.56797089215297,0.9019176418308152,-0.399843837050151,-0.06618620178353046,-0.14929454302676348,0.0,0.0,0.0,0.0,0.0,0.0,nan,nan,nan
22.19897572100035,1526159.7700484295,-4463157.935089424,4278835.185149766,-10.90950208301666,15.74701470555557,-13.110296647712042,0.9019180883500723,-0.39984403500389426,-0.06618500589500954,-0.14929184549123903,0.0,0.0,0.0,0.0,0.0,0.0,nan,nan,nan
22.2690875520002,1526159.0023505318,-4463156.826977432,4278834.262582714,-11.074166644207237,16.2291504030773,-13.575528294769631,0.901918471387899,-0.3998442048146481,-0.06618398000769972,-0.14928953142315163,0.0,0.0,0.0,0.0,0.0,0.0,nan,nan,nan
22.346087160000025,1526158.152845749,-4463155.582031303,4278833.221197246,-11.253663377095295,16.754732276130873,-14.082681099365029,0.9019188889335664,-0.3998443899236363,-0.06618286167968995,-0.14928700883891272,0.0,0.0,0.0,0.0,0.0,0.0,nan,nan,nan
22.417590938000103,1526157.343963688,-4463154.377747692,4278832.20897325,-11.421845160423059,17.247201154199473,-14.557880187977402,0.9019192801646785,-0.3998445633666892,-0.06618181381330915,-0.14928464519319018,0.0,0.0,0.0,0.0,0.0,0.0,nan,nan,nan
22.500984631000392,1526160.4041498774,-4463167.050610969,4278845.63002158,-9.653401876809628,10.854079903846431,-7.879905433658642,0.9019197033702454,-0.39984475098485983,-0.06618068028793071,-0.14928208832863069,0.0,0.0,0.0,0.0,0.0,0.0,42.403796,-71.122104,28.5
22.570525234999877,1526159.6800126394,-4463166.236406449,4278845.038920843,-9.828985914983631,11.368018052191124,-8.375837974449029,0.9019201116596693,-0.3998449319903115,-0.06617958669545318,-0.14927962153970692,0.0,0.0,0.0,0.0,0.0,0.0,nan,nan,nan
22.64632292999977,1526158.9371985386,-4463165.377281797,4278844.405926696,-10.00587542765428,11.88579601835651,-8.875473961008082,0.901920522991065,-0.39984511434434933,-0.06617848493636017,-0.14927713632955497,0.0,0.0,0.0,0.0,0.0,0.0,nan,nan,nan
22.719208530000287,1526158.2086884892,-4463164.511898062,4278843.759719173,-10.17628623668574,12.384628118376298,-9.356826118074393,0.9019209192634328,-0.3998452900223236,-0.06617742349534127,-0.1492747420638642,0.0,0.0,0.0,0.0,0.0,0.0,nan,nan,nan
22.796505708999575,1526157.4177239619,-4463163.54928741,4278843.032448205,-10.358202245047833,12.917157249671988,-9.870692661576335,0.9019213422960227,-0.399845477563809,-0.06617629035604337,-0.1492721860701769,0.0,0.0,0.0,0.0,0.0,0.0,nan,nan,nan
23.093074120999518,1526154.5887363672,-4463160.021409044,4278840.336607128,-10.997400414248638,14.788374443505457,-11.676325771169338,0.9019228286970831,-0.3998461365245353,-0.06617230870931189,-0.14926320477023453,0.0,0.0,0.0,0.0,0.0,0.0,nan,nan,nan
23.263450243999614,1526152.4630851764,-4463157.163013008,4278838.079728698,-11.449714795168873,16.11267355450625,-12.95419248377155,0.9019238805838691,-0.39984660285364326,-0.06616949085431045,-0.1492568486058963,0.0,0.0,0.0,0.0,0.0,0.0,nan,nan,nan
23.33329362800032,1526151.6581870231,-4463156.030315694,4278837.1690679705,-11.614208420145568,16.594327493236488,-13.418954313249257,0.9019242631448645,-0.39984677245300515,-0.0661684659972746,-0.14925453686177187,0.0,0.0,0.0,0.0,0.0,0.0,nan,nan,nan
23.403677823999715,1526150.8451420744,-4463154.868640817,4278836.229682984,-11.778008764543946,17.0739676458418,-13.881771380246898,0.9019246440989669,-0.39984694133998905,-0.06616744542879906,-0.14925223479124455,0.0,0.0,0.0,0.0,0.0,0.0,nan,nan,nan
23.473360963999767,1526150.0195414673,-4463153.671810492,4278835.2566153705,-11.942020574561477,17.554243175401844,-14.345199941409136,0.901925025550304,-0.39984711044741017,-0.06616642351203739,-0.14924992967942236,0.0,0.0,0.0,0.0,0.0,0.0,nan,nan,nan
23.555131844999778,1526152.477930163,-4463166.610237979,4278849.15100094,-10.399248791291177,10.778032820355872,-7.187159200245897,0.9019254401166666,-0.39984729423559406,-0.06616531286098455,-0.14924742441190125,0.0,0.0,0.0,0.0,0.0,0.0,42.403838,-71.122195,28.6
23.62847721900016,1526151.65792606,-4463165.760365905,4278848.5842773095,-10.583817622174331,11.318278416522018,-7.708469722182522,0.9019258691990178,-0.39984748445909785,-0.06616416330045426,-0.14924483137725486,0.0,0.0,0.0,0.0,0.0,0.0,nan,nan,nan
23.700180447999628,1526150.899506655,-4463164.949316218,4278848.031900726,-10.751542228314605,11.809238439808205,-8.18222024773629,0.9019262591288671,-0.3998476573252667,-0.06616311861614245,-0.14924247490924497,0.0,0.0,0.0,0.0,0.0,0.0,nan,nan,nan
23.772562066999853,1526150.1211174577,-4463164.094352024,4278847.439525073,-10.920992572389714,12.305267109178262,-8.660860065431363,0.9019266530765366,-0.39984783197264107,-0.06616206315023947,-0.14924009412147227,0.0,0.0,0.0,0.0,0.0,0.0,nan,nan,nan
23.950522312999965,1526148.1773364586,-4463161.90418989,4278845.898015442,-11.337562810274983,13.524727475769792,-9.83756667313416,0.9019276215455745,-0.3998482613204649,-0.06615946835124105,-0.1492342410989249,0.0,0.0,0.0,0.0,0.0,0.0,nan,nan,nan
24.334485264999785,1526143.942183964,-4463156.852020895,4278842.223187286,-12.211780178366103,16.084115158707984,-12.307201737887352,0.9019296540124451,-0.3998491623665426,-0.06615402246494106,-0.14922195695077947,0.0,0.0,0.0,0.0,0.0,0.0,nan,nan,nan
24.406797052999536,1526142.9325367294,-4463155.5222162185,4278841.205650775,-12.405240420329955,16.650597583320835,-12.853808730057334,0.9019301038368135,-0.39984936178552877,-0.06615281712234916,-0.14921923808994594,0.0,0.0,0.0,0.0,0.0,0.0,nan,nan,nan
24.480900563999967,1526142.0115333607,-4463154.2860244205,4278840.251344309,-12.578957226808,17.159288321993508,-13.344649705840775,0.9019305077618942,-0.39984954085615226,-0.0661517347515686,-0.14921679661352055,0.0,0.0,0.0,0.0,0.0,0.0,nan,nan,nan
24.55833548800001,1526143.7783521574,-4463165.870941846,4278852.945475691,-11.334967933023563,10.87322300634002,-6.600175339190719,0.9019308995783408,-0.3998497145586994,-0.06615068481009323,-0.1492144282870596,0.0,0.0,0.0,0.0,0.0,0.0,42.403885,-71.122293,28.5
24.628055793000385,1526142.9314455308,-4463165.058535082,4278852.452335149,-11.509853711378735,11.385141712961763,-7.094142481960185,0.9019313060647232,-0.39984989476481525,-0.06614959553983554,-0.149211971247658,0.0,0.0,0.0,0.0,0.0,0.0,nan,nan,nan
24.703710701999626,1526142.0609251503,-4463164.197446997,4278851.915786574,-11.686878681910294,11.90334082901768,-7.594167969367089,0.9019317175295438,-0.3998500771780039,-0.06614849290998238,-0.14920948407335435,0.0,0.0,0.0,0.0,0.0,0.0,nan,nan,nan
24.776512929999626,1526141.2083335987,-4463163.329063907,4278851.361770089,-11.857625983795675,12.403181752681459,-8.076477314703316,0.9019321144093012,-0.39985025312525,-0.06614742934680957,-0.14920708502077465,0.0,0.0,0.0,0.0,0.0,0.0,nan,nan,nan
24.853622282999822,1526140.2901965396,-4463162.368684416,4278850.736407715,-12.038846600388753,12.933700612646533,-8.58838676117107,0.901932535639047,-0.39985043986748714,-0.06614630051102445,-0.1492045387344123,0.0,0.0,0.0,0.0,0.0,0.0,nan,nan,nan
25.238678859000174,1526135.7825545676,-4463157.525986966,4278847.520703261,-12.91513692748089,15.499114505132344,-11.063802299996407,0.9019345724567908,-0.39985134284242146,-0.06614084185002507,-0.1491922257707002,0.0,0.0,0.0,0.0,0.0,0.0,nan,nan,nan
25.61774666600013,1526134.3070144353,-4463164.832197002,4278856.916968202,-11.960275047752113,11.069965338395914,-6.336072346248475,0.9019366600559843,-0.3998522683301095,-0.06613524661467467,-0.14917960473967481,0.0,0.0,0.0,0.0,0.0,0.0,42.403935,-71.122396,28.4
25.691568229999575,1526133.359320358,-4463163.955048229,4278856.414918022,-12.145738483909053,11.612863671258104,-6.859926381368705,0.9019370910350553,-0.3998524593944792,-0.06613409143326988,-0.14917699902616385,0.0,0.0,0.0,0.0,0.0,0.0,nan,nan,nan
25.761281410000265,1526132.5076667625,-4463163.14075957,4278855.93390314,-12.309856266786628,12.09329623654477,-7.3235040881276845,0.9019374724178442,-0.3998526284715112,-0.06613306917073647,-0.14917469313439302,0.0,0.0,0.0,0.0,0.0,0.0,nan,nan,nan
25.83197526099957,1526131.644000107,-4463162.2922868915,4278855.4200818455,-12.474065182966514,12.57401183289863,-7.78735330828306,0.9019378540179507,-0.3998527976448858,-0.06613204630945424,-0.14917238589203963,0.0,0.0,0.0,0.0,0.0,0.0,nan,nan,nan
25.907791997999993,1526130.6926284903,-4463161.333292547,4278854.826156225,-12.65256292433988,13.096575118548014,-8.291580223261388,0.9019382688291646,-0.3998529815416187,-0.06613093440891114,-0.1491698778060749,0.0,0.0,0.0,0.0,0.0,0.0,nan,nan,nan
25.98031973599973,1526129.7739034253,-4463160.382326968,4278854.224089859,-12.822498166984658,13.59408944864453,-8.771635344810381,0.9019386637483562,-0.39985315661969434,-0.06612987581104272,-0.14916748995360685,0.0,0.0,0.0,0.0,0.0,0.0,nan,nan,nan
26.093106751999585,1526128.7749385217,-4463159.32324955,4278853.540716328,-13.00482077297875,14.127888580160013,-9.286700103603298,0.9019390874611322,-0.39985334446272414,-0.06612874001137349,-0.14916492795898706,0.0,0.0,0.0,0.0,0.0,0.0,nan,nan,nan
26.267162232999908,1526126.0582058816,-4463156.371905835,4278851.600706409,-13.493688116940413,15.559234764965247,-10.667806084252756,0.9019402235773865,-0.39985384813297314,-0.06612569445208903,-0.1491580581678502,0.0,0.0,0.0,0.0,0.0,0.0,nan,nan,nan
26.33937731700007,1526125.083827216,-4463155.248374131,4278850.830384568,-13.662657067109231,16.054005848607677,-11.145205849640355,0.9019406162800837,-0.39985402222841854,-0.06612464170997939,-0.14915568352406927,0.0,0.0,0.0,0.0,0.0,0.0,nan,nan,nan
26.411905222000314,1526124.0926221036,-4463154.08368028,4278850.021816735,-13.832412943944465,16.5510985021565,-11.62484398404019,0.9019410108175226,-0.3998541971372532,-0.06612358403202616,-0.14915329774663066,0.0,0.0,0.0,0.0,0.0,0.0,nan,nan,nan
26.48407934900024,1526123.0940371407,-4463152.888828872,4278849.182599857,-14.001328683174254,17.045748303042892,-12.102123351610988,0.9019414034082178,-0.39985437118304507,-0.06612253155566068,-0.14915092370228217,0.0,0.0,0.0,0.0,0.0,0.0,nan,nan,nan
26.55972459199984,1526122.0347463032,-4463151.59920805,4278848.2669961555,-14.178345965309557,17.56414056285204,-12.602309660026865,0.9019418148342924,-0.3998545535790566,-0.0661214285660184,-0.14914843571641132,0.0,0.0,0.0,0.0,0.0,0.0,nan,nan,nan
26.939010432999567,1526124.3881929494,-4463163.921471907,4278861.178048964,-11.53996619428837,11.45110355358396,-6.980882942157379,0.9019438467525902,-0.3998554543819375,-0.06611598093148134,-0.14913614762481173,0.0,0.0,0.0,0.0,0.0,0.0,42.403985,-71.122501,28.3
27.01227018499958,1526123.4834402357,-4463163.023686173,4278860.630736027,-11.723469355273432,11.988275001002659,-7.499216244151546,0.9019442730650702,-0.39985564337748447,-0.06611483791627767,-0.14913356935429323,0.0,0.0,0.0,0.0,0.0,0.0,nan,nan,nan
27.103083132999927,1526122.6357655341,-4463162.15686449,4278860.08849928,-11.892699106378341,12.483682401167558,-7.977248295962598,0.9019446662243598,-0.3998558176753493,-0.06611378377233851,-0.14913119154844087,0.0,0.0,0.0,0.0,0.0,0.0,nan,nan,nan
27.17637321700022,1526121.5448750514,-4463161.011764442,4278859.356764275,-12.10737879685841,13.112162981304154,-8.583684128392543,0.9019451649805966,-0.3998560387871211,-0.06611244647560688,-0.14912817504198794,0.0,0.0,0.0,0.0,0.0,0.0,nan,nan,nan
27.246800869999788,1526120.687738545,-4463160.083494686,4278858.749086168,-12.273059946816351,13.597220448759357,-9.051725495285732,0.901945549908769,-0.39985620943591493,-0.06611141436287259,-0.14912584693136782,0.0,0.0,0.0,0.0,0.0,0.0,nan,nan,nan
27.31657967299998,1526119.8285240901,-4463159.131578178,4278858.11539144,-12.43689576123689,14.076891768404405,-9.514568061532755,0.9019459305552437,-0.3998563781865195,-0.066110393714429,-0.14912354468045863,0.0,0.0,0.0,0.0,0.0,0.0,nan,nan,nan
27.387245025000084,1526118.9541865885,-4463158.141945828,4278857.446499151,-12.601414085097183,14.558577556377305,-9.979352829756042,0.9019463127929144,-0.399856547642543,-0.06610936878313381,-0.1491212327688293,0.0,0.0,0.0,0.0,0.0,0.0,nan,nan,nan
27.464006100000006,1526117.9834379398,-4463157.02042729,4278856.677740724,-12.781683341373784,15.086397668046434,-10.488651445527719,0.9019467316316407,-0.3998567333247783,-0.06610824569109988,-0.14911869943850145,0.0,0.0,0.0,0.0,0.0,0.0,nan,nan,nan
27.536666541999693,1526117.0541943507,-4463155.923628227,4278855.915203283,-12.951805712240914,15.5845266538173,-10.969299002951386,0.9019471269014713,-0.3998569085583014,-0.06610718577973096,-0.1491163086232035,0.0,0.0,0.0,0.0,0.0,0.0,nan,nan,nan
27.613542570999925,1526116.0617827924,-4463154.729488605,4278855.074698155,-13.131100621983638,16.10953180034071,-11.47587772372805,0.901947543489216,-0.3998570932426172,-0.06610606868573132,-0.14911378882249005,0.0,0.0,0.0,0.0,0.0,0.0,nan,nan,nan
27.99253850599962,1526115.509746171,-4463163.566617639,4278865.225920961,-11.819618240690964,11.208226036019227,-6.694427719468891,0.9019495745807791,-0.3998579936789849,-0.06610062196783471,-0.1491015027985331,0.0,0.0,0.0,0.0,0.0,0.0,42.404033,-71.122606,28.7
28.095046669000112,1526114.5818656688,-4463162.686733518,4278864.700385463,-12.003361223432092,11.7460976675003,-7.213434093531845,0.9019500013473393,-0.39985818287583763,-0.06609947746201136,-0.14909892116566145,0.0,0.0,0.0,0.0,0.0,0.0,nan,nan,nan
28.169030185000338,1526113.3427475626,-4463161.474172967,4278863.955735975,-12.244972619359304,12.453394518137454,-7.895920664043053,0.9019505625282715,-0.39985843166212054,-0.06609797245171005,-0.1490955263519464,0.0,0.0,0.0,0.0,0.0,0.0,nan,nan,nan
28.240047565000168,1526112.4688045809,-4463160.585354586,4278863.392191681,-12.41201001550792,12.942406646612818,-8.367777036789267,0.9019509505088595,-0.39985860366413056,-0.06609693192039608,-0.1490931792517488,0.0,0.0,0.0,0.0,0.0,0.0,nan,nan,nan
28.31614241599982,1526111.5271174703,-4463159.6034268,4278862.757336588,-12.589567794640846,13.462235718660963,-8.869367468555433,0.9019513629311906,-0.39985878650180884,-0.06609582581993041,-0.14909068424887226,0.0,0.0,0.0,0.0,0.0,0.0,nan,nan,nan
28.389011557999766,1526110.6055547625,-4463158.61798436,4278862.108094418,-12.7608748321172,13.963783076934195,-9.353315821131599,0.9019517608409537,-0.3998589629056837,-0.06609475862357637,-0.14908827700101746,0.0,0.0,0.0,0.0,0.0,0.0,nan,nan,nan
28.66792373699991,1526107.0482245972,-4463154.725321246,4278859.500684429,-13.413240802845873,15.873827051382348,-11.196330866806449,0.9019532761366559,-0.3998596346761655,-0.0660906944294069,-0.14907910950090464,0.0,0.0,0.0,0.0,0.0,0.0,nan,nan,nan
28.73982729099953,1526106.0826332108,-4463153.582597359,4278858.694683791,-13.581684829445019,16.36707586042626,-11.67226367351234,0.9019536674246523,-0.3998598081444368,-0.06608964490910797,-0.14907674212448077,0.0,0.0,0.0,0.0,0.0,0.0,nan,nan,nan
28.817746779000117,1526105.0221155134,-4463152.304584078,4278857.783262097,-13.764388352011245,16.90209882569841,-12.188502295713842,0.9019540918428013,-0.39985999630017693,-0.0660885065071093,-0.14907417425985223,0.0,0.0,0.0,0.0,0.0,0.0,nan,nan,nan
28.890404720999868,1526104.0242284792,-4463151.079220128,4278856.899623239,-13.934014456003704,17.398845010171833,-12.667806183254362,0.901954485888802,-0.39986017099114407,-0.06608744955323018,-0.1490717901156893,0.0,0.0,0.0,0.0,0.0,0.0,nan,nan,nan
29.28076346800026,1526098.0505753928,-4463162.737076698,4278873.037109754,-15.181173582455266,11.056330711277754,-4.908017928719259,0.901956521875921,-0.39986107359784057,-0.06608198812611532,-0.1490594709125204,0.0,0.0,0.0,0.0,0.0,0.0,42.40413,-71.122816,29.2
29.352590567000334,1526096.7261438344,-4463161.77250349,4278872.6089258725,-15.38536870821831,11.654115835455368,-5.484796285014619,0.9019569960120968,-0.39986128379489105,-0.06608071621448525,-0.14905660189358919,0.0,0.0,0.0,0.0,0.0,0.0,nan,nan,nan
29.428368762999526,1526095.554184297,-4463160.884767066,4278872.191128975,-15.563651577069448,12.176064383760288,-5.988400908017043,0.9019574099887012,-0.39986146732161965,-0.06607960566558367,-0.14905409685648816,0.0,0.0,0.0,0.0,0.0,0.0,nan,nan,nan
29.501345609000055,1526094.4198266491,-4463159.997313907,4278871.754664027,-15.734232002056109,12.675481350495582,-6.470264043777819,0.9019578060865205,-0.39986164292221205,-0.06607854306102057,-0.14905169996622017,0.0,0.0,0.0,0.0,0.0,0.0,nan,nan,nan
29.57357915099965,1526093.287592463,-4463159.085187195,4278871.289064299,-15.902641975237305,13.16856117918488,-6.946011101825928,0.9019581971504163,-0.3998618162911335,-0.06607749394365338,-0.14904933349867924,0.0,0.0,0.0,0.0,0.0,0.0,nan,nan,nan
29.9477143160002,1526087.3425903723,-4463154.162286719,4278868.692385673,-16.777517780212793,15.730159152044399,-9.417555010152228,0.9019602286576792,-0.39986271691179187,-0.06607204369048933,-0.1490370395003089,0.0,0.0,0.0,0.0,0.0,0.0,nan,nan,nan
30.022004319999724,1526086.0860748538,-4463152.984210836,4278867.987078477,-16.95275814714363,16.243348168634615,-9.912693673034521,0.9019606356200903,-0.39986289732894387,-0.06607095181106633,-0.14903457657547897,0.0,0.0,0.0,0.0,0.0,0.0,nan,nan,nan
30.41138289599985,1526087.094070472,-4463162.059690084,4278877.447034211,-14.182970992157065,11.280426267190784,-5.84316812912561,0.9019626638666258,-0.3998637965040359,-0.06606550975279545,-0.14902230106212208,0.0,0.0,0.0,0.0,0.0,0.0,42.404175,-71.122919,29.2
30.483932508999715,1526085.8384013034,-4463161.060993586,4278876.929717629,-14.390185449601049,11.887050390733542,-6.428488001352548,0.9019631449037128,-0.39986400976044206,-0.06606421899802387,-0.14901938953919264,0.0,0.0,0.0,0.0,0.0,0.0,nan,nan,nan
30.556643324000106,1526084.7899669136,-4463160.194931611,4278876.461353416,-14.56070351864136,12.386266535484959,-6.910169919061187,0.9019635407601192,-0.39986418525400974,-0.06606315678700773,-0.14901699353663858,0.0,0.0,0.0,0.0,0.0,0.0,nan,nan,nan
30.628608375999647,1526083.7419091698,-4463159.303386602,4278875.963969681,-14.729158874188636,12.87946116567592,-7.386040131806593,0.9019639318339199,-0.3998643586273224,-0.06606210739204345,-0.14901462644292887,0.0,0.0,0.0,0.0,0.0,0.0,nan,nan,nan
30.904043814000033,1526079.6876114192,-4463155.758230298,4278873.9309136085,-15.373337433739504,14.765518536762983,-9.205839707529464,0.9019654273012269,-0.3998650216073546,-0.06605809434480851,-0.1490055743136641,0.0,0.0,0.0,0.0,0.0,0.0,nan,nan,nan
30.97575687599965,1526078.5841296462,-4463154.6983771175,4278873.270128247,-15.541300719562216,15.257355095068023,-9.680391534784235,0.9019658172608142,-0.39986519448670715,-0.06605704785733073,-0.14900321377829828,0.0,0.0,0.0,0.0,0.0,0.0,nan,nan,nan
31.048112411999682,1526077.4596343723,-4463153.594426811,4278872.569700739,-15.710607479434678,15.753142876738174,-10.15875405584211,0.9019662103453516,-0.39986536875143236,-0.06605599296656484,-0.14900083428784772,0.0,0.0,0.0,0.0,0.0,0.0,nan,nan,nan
31.136754111999835,1526076.2237214467,-4463152.355167735,4278871.770537788,-15.894678531133847,16.292184390083968,-10.678848255387825,0.9019666377146778,-0.39986555821550707,-0.06605484604870974,-0.148998247214217,0.0,0.0,0.0,0.0,0.0,0.0,nan,nan,nan
31.208939654999995,1526074.9165803574,-4463151.015336696,4278870.892334349,-16.087096985009325,16.855692231975844,-11.22254671068094,0.9019670844717725,-0.3998657562746901,-0.06605364707862808,-0.1489955427276938,0.0,0.0,0.0,0.0,0.0,0.0,nan,nan,nan
31.28128210900013,1526073.75334924,-4463149.79652974,4278870.080850738,-16.25627701007956,17.351164786890802,-11.700599658299764,0.9019674772809847,-0.39986593041735635,-0.0660525928709823,-0.14899316477814,0.0,0.0,0.0,0.0,0.0,0.0,nan,nan,nan
31.351469897000243,1526072.6136074509,-4463148.580024412,4278869.26051147,-16.420310579050817,17.83158186968428,-12.164124816715276,0.9019678581467068,-0.39986609926515904,-0.06605157070035378,-0.14899085909367674,0.0,0.0,0.0,0.0,0.0,0.0,nan,nan,nan
31.43267059200025,1526078.2723762176,-4463161.652518495,4278881.059767003,-13.438321187171145,11.748394356366102,-6.8426159998591,0.9019682702649471,-0.39986628196802587,-0.06605046463564876,-0.14898836417146452,0.0,0.0,0.0,0.0,0.0,0.0,42.404219,-71.123019,29.3
31.503006582000125,1526077.2657185656,-4463160.772452383,4278880.547190197,-13.613642064078912,12.261659192184329,-7.337863615759692,0.9019686771849751,-0.39986646236638834,-0.06604937250351134,-0.1489859006765931,0.0,0.0,0.0,0.0,0.0,0.0,nan,nan,nan
31.577816773999984,1526076.2386583185,-4463159.847390401,4278879.993596384,-13.79020702117196,12.778584865940564,-7.836641739580986,0.9019690869988602,-0.3998666440476738,-0.06604827258580483,-0.14898341962001016,0.0,0.0,0.0,0.0,0.0,0.0,nan,nan,nan
31.65043142600007,1526075.234228222,-4463158.916643298,4278879.422803009,-13.960665194262248,13.277650015213,-8.318184590286549,0.9019694826449708,-0.3998668194480118,-0.06604721067576565,-0.14898102429636223,0.0,0.0,0.0,0.0,0.0,0.0,nan,nan,nan
31.729286378000324,1526074.1325585002,-4463157.86887195,4278878.766395024,-14.145337030763695,13.818348758227653,-8.839897415124739,0.9019699112882286,-0.3998670094768539,-0.0660460601819324,-0.14897842915648793,0.0,0.0,0.0,0.0,0.0,0.0,nan,nan,nan
31.801439548000417,1526073.1191155175,-4463156.878856049,4278878.133060379,-14.312995977641487,14.309254349627281,-9.313563685057373,0.9019703004493973,-0.3998671820022464,-0.06604501564160718,-0.14897607301326493,0.0,0.0,0.0,0.0,0.0,0.0,nan,nan,nan
31.880051176000052,1526071.9917047126,-4463155.751739966,4278877.399446512,-14.497318778226296,14.84897040089873,-9.834324498754329,0.9019707282958266,-0.39986737167783354,-0.06604386724730084,-0.14897348260924043,0.0,0.0,0.0,0.0,0.0,0.0,nan,nan,nan
31.952611454999897,1526070.9345533557,-4463154.668946005,4278876.682322907,-14.66795148831868,15.34861947402563,-10.316423664309369,0.9019711243717836,-0.39986754726873375,-0.06604280411070339,-0.148971084518876,0.0,0.0,0.0,0.0,0.0,0.0,nan,nan,nan
32.02916828799971,1526069.8121977616,-4463153.4945073705,4278875.892935527,-14.846995704706965,15.8729177041069,-10.822304398580162,0.9019715399787746,-0.39986773151825555,-0.06604168853051874,-0.1489685681328368,0.0,0.0,0.0,0.0,0.0,0.0,nan,nan,nan
32.11298879900005,1526068.7253926578,-4463152.33260443,4278875.100739187,-15.018272367782707,16.374488614211796,-11.306254369286956,0.9019719375617165,-0.39986790777724185,-0.06604062131271143,-0.14896616083659037,0.0,0.0,0.0,0.0,0.0,0.0,nan,nan,nan
32.1889276969996,1526067.4262903365,-4463150.916187438,4278874.122731801,-15.220665108570403,16.96720159126608,-11.878142406935423,0.9019724073805077,-0.3998681160602821,-0.06603936017193475,-0.14896331611320104,0.0,0.0,0.0,0.0,0.0,0.0,nan,nan,nan
32.26094199799991,1526066.3331381197,-4463149.697598507,4278873.269640454,-15.388701189965886,17.45932066451915,-12.352968898549749,0.9019727974539833,-0.3998682889901244,-0.06603831307376162,-0.14896095420030517,0.0,0.0,0.0,0.0,0.0,0.0,nan,nan,nan
32.33453015400028,1526065.2045198947,-4463148.417119585,4278872.363664982,-15.560289359215599,17.961859999965288,-12.83784779567941,0.9019731957789642,-0.39986846557807615,-0.06603724380796584,-0.14895854228446287,0.0,0.0,0.0,0.0,0.0,0.0,nan,nan,nan
32.405283627000244,1526064.0954480246,-4463147.136873878,4278871.448637277,-15.727041227107526,18.4502523082824,-13.309075140185048,0.9019735828828581,-0.3998686371914246,-0.06603620464707681,-0.1489561982754982,0.0,0.0,0.0,0.0,0.0,0.0,nan,nan,nan
32.48747440900024,1526070.1855708696,-4463161.599905023,4278884.680702588,-12.238255691566398,10.986116447294775,-6.643583068572973,0.9019739967236156,-0.39986882065792867,-0.06603509369384657,-0.14895369232636313,0.0,0.0,0.0,0.0,0.0,0.0,42.40426,-71.123113,29.3
32.560041562999686,1526069.2283881076,-4463160.740655017,4278884.16109233,-12.421314414146082,11.521998090170017,-7.160667222064404,0.9019744214863342,-0.39986900896642563,-0.06603395340070456,-0.14895112019593035,0.0,0.0,0.0,0.0,0.0,0.0,nan,nan,nan
32.631557632000295,1526068.3372553494,-4463159.914041215,4278883.647370117,-12.58922396597342,12.013550962485798,-7.634975741061631,0.9019748111040627,-0.39986918169422314,-0.0660329074379598,-0.14894876084419154,0.0,0.0,0.0,0.0,0.0,0.0,nan,nan,nan
33.00610244899963,1526063.6243813883,-4463155.416674922,4278880.789157533,-13.465365140904039,14.578530794811341,-10.109963854061458,0.9019768440664027,-0.3998700829599554,-0.06602744949728241,-0.14893644950529156,0.0,0.0,0.0,0.0,0.0,0.0,nan,nan,nan
33.19486436199986,1526061.216997303,-4463152.81027527,4278878.981663579,-13.883720158958972,15.803522848290182,-11.291955701500891,0.9019778148964217,-0.39987051335446444,-0.06602484292412165,-0.14893056992406364,0.0,0.0,0.0,0.0,0.0,0.0,nan,nan,nan
33.26778291899973,1526060.0631011198,-4463151.496821492,4278878.043172711,-14.078186980001096,16.372993387185495,-11.84143163164214,0.9019782661953205,-0.3998707134271488,-0.06602363119960104,-0.14892783666767478,0.0,0.0,0.0,0.0,0.0,0.0,nan,nan,nan
33.3386962200002,1526059.0639544935,-4463150.334809571,4278877.202771423,-14.244241903598494,16.859282914988142,-12.310645201305311,0.9019786515658478,-0.3998708842720502,-0.06602259647277248,-0.14892550266050827,0.0,0.0,0.0,0.0,0.0,0.0,nan,nan,nan
33.71631375099969,1526062.484413016,-4463161.133996291,4278888.167073132,-10.435019246992502,10.24432783725014,-6.426641014314152,0.9019806719713862,-0.39987177997102175,-0.06601717137476153,-0.14891326540398125,0.0,0.0,0.0,0.0,0.0,0.0,42.404301,-71.123198,29.4
33.78919805900023,1526061.6659908667,-4463160.330530135,4278887.663029466,-10.618595729476434,10.781682350675585,-6.945166752855014,0.9019810978023798,-0.3998719687531131,-0.0660160278949527,-0.14891068608546465,0.0,0.0,0.0,0.0,0.0,0.0,nan,nan,nan
33.86062642399975,1526060.9100725218,-4463159.563001953,4278887.168615789,-10.785215362374768,11.269420160023618,-7.41581253473453,0.9019814843061825,-0.3998721401004253,-0.06601499000245079,-0.14890834493756872,0.0,0.0,0.0,0.0,0.0,0.0,nan,nan,nan
33.93784164800036,1526060.073458394,-4463158.688827836,4278886.593367792,-10.966767576003729,11.800887618942346,-7.928653737053555,0.9019819054546369,-0.39987232680662377,-0.06601385905834108,-0.1489057938955119,0.0,0.0,0.0,0.0,0.0,0.0,nan,nan,nan
34.01098227999955,1526059.273754234,-4463157.828299074,4278886.015204961,-11.137431417384828,12.300499618713621,-8.410754079681098,0.9019823013517521,-0.39987250231823873,-0.06601279590555145,-0.14890339576862316,0.0,0.0,0.0,0.0,0.0,0.0,nan,nan,nan
34.09915670499959,1526058.4073131795,-4463156.871376651,4278885.360886891,-11.31949843323339,12.83351269160966,-8.925082931556398,0.9019827237074648,-0.3998726895596466,-0.06601166168073888,-0.1489008373263678,0.0,0.0,0.0,0.0,0.0,0.0,nan,nan,nan
34.17207692899956,1526057.4673227072,-4463155.805659851,4278884.619732769,-11.51383707367944,13.40247305086184,-9.474096880564439,0.9019831745376095,-0.3998728894245199,-0.06601045096652144,-0.14889810634889428,0.0,0.0,0.0,0.0,0.0,0.0,nan,nan,nan
34.247009990999686,1526056.6050857368,-4463154.801988557,4278883.910245867,-11.689085484100517,13.915563931434441,-9.969197987218433,0.9019835810892011,-0.3998730696595448,-0.06600935914376631,-0.14889564355188864,0.0,0.0,0.0,0.0,0.0,0.0,nan,nan,nan
34.318786175999776,1526055.764740666,-4463153.801578767,4278883.193545968,-11.857318333422409,14.408132464308348,-10.444494546691768,0.9019839713717993,-0.3998732426820965,-0.06600831099507849,-0.1488932792693733,0.0,0.0,0.0,0.0,0.0,0.0,nan,nan,nan
34.391634943999634,1526054.8993227738,-4463152.749987229,4278882.431244392,-12.028107288154938,14.908202316968422,-10.927027690324966,0.9019843675900779,-0.39987341833609163,-0.06600724688795076,-0.14889087898980818,0.0,0.0,0.0,0.0,0.0,0.0,nan,nan,nan
34.46229671299989,1526054.0516561298,-4463151.699349292,4278881.661175031,-12.193012623584885,15.391061903945728,-11.392952439395726,0.9019847501645928,-0.3998735879414472,-0.0660062194065951,-0.14888856132607184,0.0,0.0,0.0,0.0,0.0,0.0,nan,nan,nan
34.538790298000094,1526053.1210598985,-4463150.524671249,4278880.791641067,-12.371597287003066,15.913993694446598,-11.897542237192914,0.9019851644803597,-0.39987377161853543,-0.06600510665914616,-0.14888605132976304,0.0,0.0,0.0,0.0,0.0,0.0,nan,nan,nan
34.612259042000005,1526052.2076419215,-4463149.349711575,4278879.913223454,-12.544349487281389,16.419865446893294,-12.385668556339438,0.9019855652711863,-0.3998739492996615,-0.06600403021793143,-0.1488836232285095,0.0,0.0,0.0,0.0,0.0,0.0,nan,nan,nan
34.68968655000026,1526051.234472162,-4463148.075885735,4278878.952363897,-12.725862033079734,16.951409087291864,-12.89856436471021,0.901985986392469,-0.399874135993814,-0.06600289915389021,-0.14888107191592623,0.0,0.0,0.0,0.0,0.0,0.0,nan,nan,nan
34.76804248000008,1526056.103712608,-4463160.674718555,4278891.222428139,-10.18965936966329,10.98788618892982,-7.209174758239384,0.901986381266494,-0.3998743110518661,-0.06600183856767378,-0.1488786795783918,0.0,0.0,0.0,0.0,0.0,0.0,42.404338,-71.123273,29.3
34.83982349799953,1526055.319486017,-4463159.829058046,4278890.667588538,-10.36979218625165,11.515184429698719,-7.717999666811674,0.901986799033595,-0.39987449625902166,-0.0660007164742288,-0.1488761485005558,0.0,0.0,0.0,0.0,0.0,0.0,nan,nan,nan
34.91255377000016,1526054.5609179344,-4463158.986702557,4278890.103003626,-10.540999060202493,12.016372536023743,-8.20162735587237,0.9019871961059489,-0.39987467229165086,-0.06599964994727389,-0.1488737427626477,0.0,0.0,0.0,0.0,0.0,0.0,nan,nan,nan
34.991100276,1526053.7363063614,-4463158.046674026,4278889.461398708,-10.724083228955934,12.552348891809078,-8.718822542572408,0.9019876207309172,-0.3998748605390795,-0.06599850939505814,-0.14887117004782882,0.0,0.0,0.0,0.0,0.0,0.0,nan,nan,nan
35.094301870999516,1526052.9567018976,-4463157.134160852,4278888.827569892,-10.894213974960886,13.05042302364135,-9.199441794422073,0.9019880153197388,-0.3998750354706935,-0.06599744950245794,-0.14886877927486702,0.0,0.0,0.0,0.0,0.0,0.0,nan,nan,nan
35.16536841600009,1526051.847693346,-4463155.805654659,4278887.891085658,-11.132442747647174,13.747885070077754,-9.87245906277478,0.9019885678566046,-0.3998752804248341,-0.0659959653212082,-0.14886543144471742,0.0,0.0,0.0,0.0,0.0,0.0,nan,nan,nan
35.2413725209999,1526051.0036646225,-4463154.763330871,4278887.142585153,-11.309862985374417,14.267343488830251,-10.373708904485353,0.9019889793667074,-0.3998754628580975,-0.06599485993272593,-0.14886293804784378,0.0,0.0,0.0,0.0,0.0,0.0,nan,nan,nan
35.314690729000176,1526050.174417936,-4463153.717239745,4278886.381977907,-11.481435926336506,14.769700267592821,-10.858454767373065,0.9019893773208154,-0.39987563928163156,-0.06599379093993875,-0.14886052674782008,0.0,0.0,0.0,0.0,0.0,0.0,nan,nan,nan
35.39239564299987,1526049.2785881634,-4463152.5648458,4278885.534755737,-11.66400959481462,15.304285467639783,-11.374297377869258,0.9019898007966337,-0.3998758270196118,-0.0659926533706548,-0.14885796076152508,0.0,0.0,0.0,0.0,0.0,0.0,nan,nan,nan
35.465320573999634,1526048.4293843694,-4463151.450609981,4278884.706644579,-11.834366018703738,15.803116662854684,-11.855637679062662,0.9019901959413253,-0.39987600219765757,-0.06599159188818537,-0.1488555664023354,0.0,0.0,0.0,0.0,0.0,0.0,nan,nan,nan
35.543326559999514,1526047.5085129885,-4463150.220916912,4278883.784117979,-12.016434599596467,16.336261623303802,-12.370086739041978,0.901990618258601,-0.3998761894220253,-0.06599045739224998,-0.14885300734851512,0.0,0.0,0.0,0.0,0.0,0.0,nan,nan,nan
35.62148578899996,1526046.5655732355,-4463148.938996691,4278882.813426845,-12.200035582089885,16.873913987560094,-12.888883160832203,0.9019910441370748,-0.39987637822516586,-0.06598931330936773,-0.148850426669661,0.0,0.0,0.0,0.0,0.0,0.0,nan,nan,nan
35.69335163699998,1526045.6892363592,-4463147.726931942,4278881.887609577,-12.36809475174205,17.366072689215546,-13.363779595166159,0.9019914339714658,-0.39987655104901554,-0.06598826603769695,-0.14884806436541081,0.0,0.0,0.0,0.0,0.0,0.0,nan,nan,nan
35.77077506099977,1526050.854905497,-4463160.667982243,4278892.98700125,-9.33966652464365,10.36626255308832,-7.47152803602831,0.9019918248517914,-0.3998767243365556,-0.06598721593902936,-0.14884569568437536,0.0,0.0,0.0,0.0,0.0,0.0,42.404358,-71.123333,29.1
35.84389519399974,1526050.1223840665,-4463159.854943635,4278892.401000198,-9.52324224819602,10.903610439944854,-7.990060108746883,0.9019922504943101,-0.39987691303509104,-0.06598607243232439,-0.14884311630518982,0.0,0.0,0.0,0.0,0.0,0.0,nan,nan,nan
35.91704390799987,1526049.4246823601,-4463159.056111954,4278891.815624081,-9.694715632909553,11.405552264456075,-8.474424029275367,0.9019926480827187,-0.39987708929650095,-0.06598500427578932,-0.14884070689147894,0.0,0.0,0.0,0.0,0.0,0.0,nan,nan,nan
35.9952259290003,1526048.667715493,-4463158.16556235,4278891.153938019,-9.877458321656794,11.940500752841091,-8.990636864001514,0.9019930718069453,-0.3998772771446071,-0.0659838658835084,-0.14883813904877047,0.0,0.0,0.0,0.0,0.0,0.0,nan,nan,nan
36.481202480999855,1526043.9711104233,-4463152.488006997,4278886.879005207,-10.990272408758637,15.198199076308097,-12.134227799213985,0.9019956520093481,-0.39987842101626786,-0.06597693338625374,-0.14882250158985139,0.0,0.0,0.0,0.0,0.0,0.0,nan,nan,nan
36.55565285400007,1526043.0379285691,-4463151.1975309225,4278885.848690327,-11.188952216318091,15.779955550514295,-12.695593944420711,0.901996112738695,-0.3998786252697181,-0.06597569541822257,-0.14881970913663875,0.0,0.0,0.0,0.0,0.0,0.0,nan,nan,nan
36.9356522930002,1526047.2606495833,-4463160.208878113,4278894.130500102,-7.395085852501982,10.060531582840452,-7.933258801189729,0.9019981447099759,-0.39987952609608785,-0.06597023527838825,-0.148807392837156,0.0,0.0,0.0,0.0,0.0,0.0,42.404375,-71.123368,28.8
37.00790625100035,1526046.6879062923,-4463159.429698252,4278893.516075761,-7.576366067559647,10.591129367241825,-8.445298518579111,0.9019985649148671,-0.39987971238397996,-0.06596910608173477,-0.14880484573679206,0.0,0.0,0.0,0.0,0.0,0.0,nan,nan,nan
37.09245202500006,1526046.138218296,-4463158.66128017,4278892.903344119,-7.746180510045492,11.088185881160195,-8.92496826078843,0.9019989585486983,-0.39987988689222154,-0.06596804827021817,-0.14880245965807795,0.0,0.0,0.0,0.0,0.0,0.0,nan,nan,nan
37.16690556499998,1526045.468395486,-4463157.70246959,4278892.131589922,-7.948565478958473,11.680598776069134,-9.496656818216662,0.9019994276879835,-0.39988009487401893,-0.06596678753026687,-0.14879961583882037,0.0,0.0,0.0,0.0,0.0,0.0,nan,nan,nan
37.24085337300039,1526044.8778922167,-4463156.834711529,4278891.426078102,-8.122435032535376,12.18956362382923,-9.987814485986682,0.9019998307346344,-0.3998802735552114,-0.06596570438437754,-0.14879717261400174,0.0,0.0,0.0,0.0,0.0,0.0,nan,nan,nan
37.31292408799982,1526044.2922443042,-4463155.955813457,4278890.705931658,-8.291178376244867,12.683540210874957,-10.464506537499368,0.9020002219042326,-0.39988044697099356,-0.06596465313936066,-0.14879480134717513,0.0,0.0,0.0,0.0,0.0,0.0,nan,nan,nan
37.38374206000026,1526043.7094743648,-4463155.064313404,4278889.9704029355,-8.455670042068027,13.165087146674221,-10.929202202407344,0.9020006032235349,-0.3998806160198803,-0.06596362834986304,-0.148792489755395,0.0,0.0,0.0,0.0,0.0,0.0,nan,nan,nan
37.457377255999745,1526043.0817623637,-4463154.086994853,4278889.159066713,-8.629395105522102,13.673681854466418,-11.419997423345315,0.9020010059529713,-0.3998807945604432,-0.06596254600321644,-0.14879004833340798,0.0,0.0,0.0,0.0,0.0,0.0,nan,nan,nan
37.52926206099983,1526042.4617855002,-4463153.104612393,4278888.338599682,-8.797519813078988,14.16589856631401,-11.894986092434218,0.9020013957056306,-0.3998809673480591,-0.0659614985146508,-0.1487876855399136,0.0,0.0,0.0,0.0,0.0,0.0,nan,nan,nan
37.602332737000324,1526041.8190477816,-4463152.069666463,4278887.469564274,-8.968480688114129,14.666435931046392,-12.378002468465974,0.9020017920389065,-0.39988114305303557,-0.06596043332267833,-0.14878528281329162,0.0,0.0,0.0,0.0,0.0,0.0,nan,nan,nan
37.67385384800036,1526041.176920035,-4463151.0195749495,4278886.583320649,-9.136018302277284,15.15696789072308,-12.851361962769156,0.9020021804419457,-0.3998813152423293,-0.06595938942700014,-0.14878292812418265,0.0,0.0,0.0,0.0,0.0,0.0,nan,nan,nan
37.7517069229998,1526040.4666220658,-4463149.841166243,4278885.584165875,-9.317938208452713,15.689627924572768,-13.365372899164374,0.9020026021933176,-0.399881502215817,-0.06595825588309114,-0.14878037121782425,0.0,0.0,0.0,0.0,0.0,0.0,nan,nan,nan
37.82462577099977,1526039.7866492802,-4463148.696221968,4278884.608833174,-9.488685584144417,16.189593513683445,-13.847832210375445,0.9020029980494367,-0.3998816777092573,-0.06595719191981601,-0.14877797126274384,0.0,0.0,0.0,0.0,0.0,0.0,nan,nan,nan
37.90107515,1526039.0607478197,-4463147.457689037,4278883.549449181,-9.667680440352342,16.713726897583097,-14.3536112575322,0.9020034130322364,-0.3998818616820587,-0.06595607652982875,-0.1487754553057281,0.0,0.0,0.0,0.0,0.0,0.0,nan,nan,nan
37.978622528000415,1526044.8647820104,-4463159.218999451,4278895.586834349,-6.8313153371528035,11.21228201624147,-8.786219533908511,0.902003803956479,-0.39988203498906827,-0.06595502578666247,-0.14877308517091323,0.0,0.0,0.0,0.0,0.0,0.0,42.404398,-71.123394,28.5
38.05164716499985,1526044.3298896232,-4463158.341077119,4278894.8988728495,-7.0145737449670085,11.748702650254153,-9.303884945946105,0.9020042286799059,-0.3998822232801463,-0.06595388417709006,-0.14877051007104164,0.0,0.0,0.0,0.0,0.0,0.0,nan,nan,nan
38.13402631400004,1526043.8228712736,-4463157.491872585,4278894.226381468,-7.183738465263614,12.243887830951603,-9.78175479907828,0.9020046207460092,-0.3998823970933728,-0.06595283032877267,-0.14876813293201588,0.0,0.0,0.0,0.0,0.0,0.0,nan,nan,nan
38.21015516399984,1526043.2028658737,-4463156.4351419415,4278893.38214962,-7.385723436135212,12.835166112786467,-10.352355593190532,0.9020050888843922,-0.3998826046314439,-0.06595157198043174,-0.14876529450745335,0.0,0.0,0.0,0.0,0.0,0.0,nan,nan,nan
38.282037844000115,1526042.671920271,-4463155.512446275,4278892.637938477,-7.5539579910377235,13.327665867284956,-10.827630201044697,0.902005478807241,-0.39988277749450923,-0.06595052385534601,-0.14876293027817666,0.0,0.0,0.0,0.0,0.0,0.0,nan,nan,nan
38.35458683199977,1526042.1238426298,-4463154.545457091,4278891.852339454,-7.723748150643279,13.824736697193858,-11.307314308717356,0.9020058723412623,-0.3998829519585025,-0.06594946600596356,-0.14876054411404951,0.0,0.0,0.0,0.0,0.0,0.0,nan,nan,nan
38.42679562499961,1526041.5678546515,-4463153.550294217,4278891.038391264,-7.892197352617902,14.317898923453253,-11.783224824499664,0.9020062627730072,-0.3998831250471749,-0.06594841647851168,-0.14875817672149091,0.0,0.0,0.0,0.0,0.0,0.0,nan,nan,nan
38.503905020000275,1526040.957727192,-4463152.4434106825,4278890.127457502,-8.073098395756997,14.847534176943716,-12.294330658336186,0.9020066820714912,-0.3998833109332328,-0.0659472893346891,-0.14875563425164576,0.0,0.0,0.0,0.0,0.0,0.0,nan,nan,nan
38.57739897200008,1526040.3637719373,-4463151.3510455815,4278889.222937089,-8.245252636064157,15.351579526603523,-12.780740000943522,0.9020070811027305,-0.39988348783428757,-0.065946216654202,-0.14875321463337052,0.0,0.0,0.0,0.0,0.0,0.0,nan,nan,nan
38.65444045299955,1526039.7308877085,-4463150.172698113,4278888.241920602,-8.424854585120782,15.87744932773968,-13.28820833759789,0.9020074974028193,-0.39988367239107786,-0.06594509753228738,-0.14875069025834048,0.0,0.0,0.0,0.0,0.0,0.0,nan,nan,nan
39.0323448070003,1526042.0815228638,-4463157.726176191,4278897.358003771,-6.280805812086003,11.027550590543228,-8.020531043784555,0.9020095171697238,-0.39988456780692616,-0.0659396676014191,-0.14873844210045928,0.0,0.0,0.0,0.0,0.0,0.0,42.404425,-71.123423,28.1
39.11581820599986,1526041.5873760134,-4463156.85857583,4278896.726982805,-6.46494524566814,11.566538381052865,-8.540680340116847,0.9020099438314029,-0.3998847569572823,-0.06593852050761362,-0.1487358546299417,0.0,0.0,0.0,0.0,0.0,0.0,nan,nan,nan
39.187826506999954,1526041.0562164353,-4463155.908269615,4278896.025280936,-6.6572330819960115,12.129398245950483,-9.083865239084464,0.9020103893803448,-0.3998849544808594,-0.06593732261290802,-0.14873315256911718,0.0,0.0,0.0,0.0,0.0,0.0,nan,nan,nan
39.263990147000186,1526040.5471022986,-4463154.980669809,4278895.33058929,-6.83621036680287,12.653316408194012,-9.589467611101954,0.9020108040946605,-0.39988513833463485,-0.06593620759952513,-0.14873063746159837,0.0,0.0,0.0,0.0,0.0,0.0,nan,nan,nan
39.336121276000085,1526040.0558726278,-4463154.071440262,4278894.641518772,-7.004373822493733,13.14559738181948,-10.064537018344883,0.9020111937581213,-0.39988531108270675,-0.0659351599209755,-0.1487282742395618,0.0,0.0,0.0,0.0,0.0,0.0,nan,nan,nan
39.40959360299985,1526039.5411898245,-4463153.105499111,4278893.901974559,-7.176330711249712,13.64900054009381,-10.550338027781477,0.9020115922173354,-0.39988548773016763,-0.06593408857581748,-0.14872585763335464,0.0,0.0,0.0,0.0,0.0,0.0,nan,nan,nan
39.48070777199973,1526039.0292062217,-4463152.131733443,4278893.149277911,-7.343281832192401,14.137766513439557,-11.022011954164292,0.9020119790829996,-0.3998856592379026,-0.06593304838535723,-0.14872351130201217,0.0,0.0,0.0,0.0,0.0,0.0,nan,nan,nan
39.55752296999981,1526038.4642956133,-4463151.044130588,4278892.301366633,-7.523298268121169,14.664800481761919,-11.530613865022731,0.9020123962298725,-0.39988584417009465,-0.06593192675698609,-0.14872098127323152,0.0,0.0,0.0,0.0,0.0,0.0,nan,nan,nan
39.631490570000096,1526037.9115473337,-4463149.966685171,4278891.454194721,-7.695218749678205,15.168150457293589,-12.016358248050114,0.9020127946225576,-0.39988602078806146,-0.06593085553675078,-0.1487185649488094,0.0,0.0,0.0,0.0,0.0,0.0,nan,nan,nan
39.70799982100016,1526037.3201054176,-4463148.800885958,4278890.530637097,-7.87505868854088,15.69470558435872,-12.524494301659447,0.9020132113730749,-0.3998862055445387,-0.0659297349358299,-0.14871603723762236,0.0,0.0,0.0,0.0,0.0,0.0,nan,nan,nan
39.779804087999764,1526036.7545907595,-4463147.673835809,4278889.631242515,-8.043082559294243,16.186682421121464,-12.999259828592518,0.9020136007479685,-0.39988637816468114,-0.06592868792757399,-0.14871367552755047,0.0,0.0,0.0,0.0,0.0,0.0,nan,nan,nan
39.85827280600006,1526036.1229630786,-4463146.402686768,4278888.610403516,-8.22682368836298,16.72469815156937,-13.518451789757114,0.902014026551527,-0.39988656693460983,-0.06592754294503651,-0.1487110928193668,0.0,0.0,0.0,0.0,0.0,0.0,nan,nan,nan
39.93025960700015,1526035.5302686985,-4463145.19777039,4278887.6364783775,-8.395382702246875,17.218277401994023,-13.994760146140981,0.9020144171783367,-0.39988674010975966,-0.06592649253454475,-0.14870872343495745,0.0,0.0,0.0,0.0,0.0,0.0,nan,nan,nan
40.0088602779997,1526034.8706311886,-4463143.844905127,4278886.536889585,-8.579207887987074,17.75657804359009,-14.514223199430926,0.902014843189559,-0.39988692897175115,-0.06592534695441127,-0.14870613937879157,0.0,0.0,0.0,0.0,0.0,0.0,nan,nan,nan
40.10275164900031,1526039.6598372632,-4463153.154404982,4278902.987117537,-6.047803769956544,12.96180212567643,-6.253331808761981,0.9020152344105745,-0.399887102410328,-0.06592429491006865,-0.14870376630894613,0.0,0.0,0.0,0.0,0.0,0.0,42.404501,-71.123431,27.9
40.17318842700024,1526039.1025597297,-4463151.960034035,4278902.4109015325,-6.263442586367029,13.593063916013655,-6.862534426753045,0.9020157340019225,-0.39988732389232656,-0.06592295141869303,-0.14870073582939125,0.0,0.0,0.0,0.0,0.0,0.0,nan,nan,nan
40.24381836500015,1526038.6612707989,-4463151.002338876,4278901.927403769,-6.428314266207904,14.0757310724307,-7.32833290977991,0.9020161159841783,-0.39988749323511796,-0.06592192418043746,-0.14869841871400968,0.0,0.0,0.0,0.0,0.0,0.0,nan,nan,nan
40.31765026100038,1526038.184829788,-4463149.959101837,4278901.384256967,-6.601748650497791,14.583482915711706,-7.818337727737596,0.9020165178104702,-0.39988767137529313,-0.06592084355925235,-0.14869598118410252,0.0,0.0,0.0,0.0,0.0,0.0,nan,nan,nan
40.38959219000026,1526037.7099626276,-4463148.910104444,4278900.821879932,-6.77006359805683,15.07626439059373,-8.293893718701888,0.9020169077815939,-0.39988784425976004,-0.0659197948024697,-0.14869361552992302,0.0,0.0,0.0,0.0,0.0,0.0,nan,nan,nan
40.46224904799965,1526037.2186634317,-4463147.816029556,4278900.219997356,-6.939868262875782,15.573424450591135,-8.773673568860097,0.9020173012099546,-0.39988801867691115,-0.0659187367307065,-0.1486912288641772,0.0,0.0,0.0,0.0,0.0,0.0,nan,nan,nan
40.534374427999865,1526036.7181841028,-4463146.692927975,4278899.587270322,-7.1086082052966955,16.067484312210023,-9.250459926375608,0.9020176921771575,-0.39988819200296616,-0.0659176852606087,-0.14868885708964127,0.0,0.0,0.0,0.0,0.0,0.0,nan,nan,nan
40.61055440000018,1526036.176414466,-4463145.468373901,4278898.882263355,-7.286928107671207,16.58961168375118,-9.754330729042756,0.9020181053467652,-0.3998883751719318,-0.06591657406047513,-0.1486863505835726,0.0,0.0,0.0,0.0,0.0,0.0,nan,nan,nan
40.68308626399994,1526035.6478614714,-4463144.265056289,4278898.17473878,-7.456635124171198,17.086538300847447,-10.233880171997125,0.9020184985663978,-0.3998885494965483,-0.06591551649698608,-0.14868396506432796,0.0,0.0,0.0,0.0,0.0,0.0,nan,nan,nan
40.762040921000334,1526035.0590930858,-4463142.915920465,4278897.366681927,-7.6413679308764575,17.627481350018442,-10.755904991440419,0.9020189266074803,-0.3998887392584303,-0.06591436526145822,-0.14868136825143186,0.0,0.0,0.0,0.0,0.0,0.0,nan,nan,nan
41.149753896999755,1526039.539987299,-4463147.902814176,4278908.20768705,-4.432163212261491,13.743753437547817,-4.946906932463431,0.9020209441161512,-0.3998896336731443,-0.06590893880405213,-0.14866912792855153,0.0,0.0,0.0,0.0,0.0,0.0,42.404561,-71.123408,27.7
41.22249187699981,1526039.1491605828,-4463146.690894451,4278907.7714704,-4.638511292878638,14.347825494393112,-5.529891399265647,0.9020214220948899,-0.3998898455737041,-0.06590765312584626,-0.1486662278567031,0.0,0.0,0.0,0.0,0.0,0.0,nan,nan,nan
41.2954273510004,1526038.81219426,-4463145.648591503,4278907.369749448,-4.808501383942043,14.845482556242303,-6.010173690151923,0.9020218158627222,-0.3998900201413519,-0.0659065939407202,-0.14866383867957284,0.0,0.0,0.0,0.0,0.0,0.0,nan,nan,nan
41.3718103150004,1526038.4448972521,-4463144.514620461,4278906.910662794,-4.987236557504529,15.368759533871499,-6.515179667706418,0.9020222298937041,-0.39989020369218736,-0.06590548023145473,-0.14866132651371877,0.0,0.0,0.0,0.0,0.0,0.0,nan,nan,nan
41.44373561900011,1526038.084774092,-4463143.404858333,4278906.440208452,-5.156194822119953,15.863430991801241,-6.992577183349432,0.9020226212831776,-0.39989037720544607,-0.06590442740820857,-0.14865895168692025,0.0,0.0,0.0,0.0,0.0,0.0,nan,nan,nan
41.516520848000255,1526037.7102883297,-4463142.252724007,4278905.932349325,-5.326129141825019,16.360977241375643,-7.4727474419422935,0.9020230149393735,-0.39989055172360255,-0.06590336847013624,-0.14865656306706285,0.0,0.0,0.0,0.0,0.0,0.0,nan,nan,nan
41.588016710000375,1526037.3281313628,-4463141.07880177,4278905.396169593,-5.494006401692826,16.852517695087293,-7.947119996955515,0.9020234038360679,-0.39989072413174664,-0.06590232231799646,-0.14865420328811046,0.0,0.0,0.0,0.0,0.0,0.0,nan,nan,nan
41.76520273799997,1526036.3547434423,-4463138.092995793,4278903.988156925,-5.908526335528585,18.066263292101052,-9.11846940832337,0.9020243640964147,-0.39989114984044155,-0.06589973909513815,-0.14864837637756986,0.0,0.0,0.0,0.0,0.0,0.0,nan,nan,nan
41.83746927900029,1526035.9288516585,-4463136.790763618,4278903.330889617,-6.077156882558669,18.560067941052413,-9.59502139545371,0.9020247547576467,-0.39989132303085156,-0.06589868813681254,-0.14864600575742556,0.0,0.0,0.0,0.0,0.0,0.0,nan,nan,nan
41.91484366399982,1526035.4596904921,-4463135.357912157,4278902.590146615,-6.2577597245299925,19.088949504936995,-10.105423009893466,0.9020251731605278,-0.3998915085198651,-0.06589756252870356,-0.14864346675165077,0.0,0.0,0.0,0.0,0.0,0.0,nan,nan,nan
41.98773663799966,1526035.002740717,-4463133.964012172,4278901.8522354495,-6.428579612477855,19.58920084890075,-10.588193003926627,0.9020255689055161,-0.39989168396403824,-0.06589649785780373,-0.1486410652003992,0.0,0.0,0.0,0.0,0.0,0.0,nan,nan,nan
42.065789039000265,1526034.49840037,-4463132.427183674,4278901.021561606,-6.61209994362039,20.126664544382347,-11.106873144790866,0.9020259940800536,-0.3998918724551054,-0.06589535399303574,-0.1486384850135399,0.0,0.0,0.0,0.0,0.0,0.0,nan,nan,nan
42.15415287399992,1526040.9999123537,-4463142.433600615,4278913.871524009,-3.2240072373172723,14.778785825153708,-4.625633163834842,0.9020263866427009,-0.3998920464884629,-0.06589429784728566,-0.14863610269225325,0.0,0.0,0.0,0.0,0.0,0.0,42.404626,-71.12337,28.1
42.22570698399977,1526040.718268862,-4463141.142552383,4278913.46743699,-3.4284199851328148,15.377214212313612,-5.2031873036797505,0.9020268600635127,-0.3998922563683738,-0.06589302413858854,-0.1486332296197233,0.0,0.0,0.0,0.0,0.0,0.0,nan,nan,nan
42.298548085999755,1526040.4686053945,-4463140.022757073,4278913.088531899,-3.5988119929983218,15.876065932519051,-5.684636186169641,0.9020272546997103,-0.3998924313209908,-0.06589196237557726,-0.14863083462772247,0.0,0.0,0.0,0.0,0.0,0.0,nan,nan,nan
42.67320319099963,1526039.1208322083,-4463134.077090557,4278910.959607066,-4.475071097743209,18.4415530507082,-8.16061567095327,0.9020292841204592,-0.3998933310166426,-0.06588650197067497,-0.1486185177303326,0.0,0.0,0.0,0.0,0.0,0.0,nan,nan,nan
42.74650169199958,1526038.7920970565,-4463132.722388786,4278910.360134751,-4.646922259580606,18.944783750207986,-8.646280428708476,0.90202968217183,-0.3998935074832958,-0.06588543091021795,-0.1486161017663183,0.0,0.0,0.0,0.0,0.0,0.0,nan,nan,nan
42.81859544700001,1526038.457171459,-4463131.356948896,4278909.736956553,-4.815529327073508,19.438532040728187,-9.12279210779094,0.9020300727148298,-0.39989368062129044,-0.06588438003559871,-0.14861373133498834,0.0,0.0,0.0,0.0,0.0,0.0,nan,nan,nan
42.891003148999516,1526038.1094304423,-4463129.953245495,4278909.078177676,-4.98445340736634,19.93322563053733,-9.60021444844646,0.9020304639977381,-0.399893854087306,-0.06588332715276518,-0.1486113563737801,0.0,0.0,0.0,0.0,0.0,0.0,nan,nan,nan
42.969111172999874,1526037.7192670782,-4463128.39295117,4278908.326710733,-5.167556398102348,20.4694605309867,-10.117725988502233,0.9020308881294105,-0.3998940421160435,-0.06588218585937992,-0.14860878198712385,0.0,0.0,0.0,0.0,0.0,0.0,nan,nan,nan
43.04152883200004,1526037.346326884,-4463126.915679517,4278907.596519052,-5.336369509631566,20.963864541281584,-10.594865442619925,0.9020312791669898,-0.3998942154732983,-0.06588113360069894,-0.14860640843380077,0.0,0.0,0.0,0.0,0.0,0.0,nan,nan,nan
43.13102674899983,1526036.9227122273,-4463125.251514345,4278906.7554715425,-5.522049082672806,21.507684132856525,-11.11969308661298,0.9020317092797522,-0.39989440615361055,-0.06587997617310616,-0.14860379765362025,0.0,0.0,0.0,0.0,0.0,0.0,nan,nan,nan
43.20974233200013,1526043.2458069327,-4463136.14149059,4278919.778003856,-2.1575083269973416,15.421642133002049,-4.349470791031248,0.9020321610756442,-0.3998946064466251,-0.06587876037401351,-0.14860105520632214,0.0,0.0,0.0,0.0,0.0,0.0,42.404696,-71.123321,28.4
43.28238606600007,1526043.0773199552,-4463134.937163433,4278919.438339263,-2.3402347435002193,15.956590462909997,-4.8657723345764134,0.902032584187818,-0.3998947940233921,-0.06587762174294606,-0.14859848682498894,0.0,0.0,0.0,0.0,0.0,0.0,nan,nan,nan
43.35454990299968,1526042.9083520768,-4463133.785077624,4278919.087024408,-2.5091690705101293,16.45117952306843,-5.343119651971866,0.9020329753700926,-0.39989496744479414,-0.06587656901998581,-0.14859611222440283,0.0,0.0,0.0,0.0,0.0,0.0,nan,nan,nan
43.42899256799956,1526042.7209505267,-4463132.5563933635,4278918.68796445,-2.6839134500138995,16.96279621186759,-5.836899312837989,0.9020333800117892,-0.3998951468331122,-0.06587548005776891,-0.14859365587984102,0.0,0.0,0.0,0.0,0.0,0.0,nan,nan,nan
43.501096406000215,1526042.5283500524,-4463131.339125127,4278918.269102368,-2.851807437900244,17.454373750878478,-6.311336790719086,0.9020337687965075,-0.3998953191916144,-0.06587443375206131,-0.1485912957544896,0.0,0.0,0.0,0.0,0.0,0.0,nan,nan,nan
43.57330611599991,1526042.3212195195,-4463130.071390957,4278917.810701658,-3.0217323694609197,17.951914650057216,-6.791528068717989,0.9020341622897933,-0.39989549363754845,-0.06587337475717571,-0.1485889070064799,0.0,0.0,0.0,0.0,0.0,0.0,nan,nan,nan
43.645578656,1526042.102869894,-4463128.7741900915,4278917.319947538,-3.190782830533484,18.44691216568444,-7.269263008696813,0.9020345537637648,-0.3998956671882674,-0.06587232117944795,-0.1485865304778163,0.0,0.0,0.0,0.0,0.0,0.0,nan,nan,nan
43.721861250000075,1526041.8602098674,-4463127.371296684,4278916.767117825,-3.3686958376208134,18.96787802111119,-7.772058945379263,0.9020349657666934,-0.39989584984001353,-0.06587121233324321,-0.14858402928144548,0.0,0.0,0.0,0.0,0.0,0.0,nan,nan,nan
43.79472772600002,1526041.6155764894,-4463125.99385678,4278916.202713936,-3.5385775904720367,19.465344676528296,-8.25217354226548,0.9020353591773096,-0.399896024249298,-0.06587015350766012,-0.14858164091532722,0.0,0.0,0.0,0.0,0.0,0.0,nan,nan,nan
43.873242484,1526041.3362128977,-4463124.457106924,4278915.551221414,-3.723257925117561,20.006164834411678,-8.774127638740259,0.9020357868642221,-0.3998962138541671,-0.06586900241099836,-0.14857904441566788,0.0,0.0,0.0,0.0,0.0,0.0,nan,nan,nan
43.946655562999695,1526041.0631030898,-4463122.989607238,4278914.9076183215,-3.8948429354025205,20.508655320772064,-9.259087348332725,0.9020361842311615,-0.3998963900173938,-0.06586793290042071,-0.14857663194767734,0.0,0.0,0.0,0.0,0.0,0.0,nan,nan,nan
44.02307794300032,1526040.7673794203,-4463121.432446935,4278914.204603763,-4.0724449703552486,21.02878491333972,-9.761069030270258,0.9020365955385579,-0.3998965723607921,-0.06586682585040517,-0.14857413480292508,0.0,0.0,0.0,0.0,0.0,0.0,nan,nan,nan
44.106094234999546,1526040.470463668,-4463119.899270296,4278913.492939106,-4.242980934564721,21.528238648813897,-10.243094525133447,0.9020369904877609,-0.3998967474521727,-0.06586576281112284,-0.14857173693207193,0.0,0.0,0.0,0.0,0.0,0.0,nan,nan,nan
44.181829475000086,1526040.1048824056,-4463118.044366684,4278912.610379537,-4.444509929105393,22.118483026933415,-10.812740591297644,0.9020374572206754,-0.39989695436716255,-0.0658645065371735,-0.1485689031866621,0.0,0.0,0.0,0.0,0.0,0.0,nan,nan,nan
44.2590750319996,1526045.6902341726,-4463129.814085941,4278926.170918399,-1.5904406023185018,15.771649264084692,-3.947837612553184,0.9020378461505261,-0.39989712679000566,-0.0658634596617576,-0.14856654177623407,0.0,0.0,0.0,0.0,0.0,0.0,42.40477,-71.123271,28.6
44.33221603899983,1526045.565089624,-4463128.57308648,4278925.860280984,-1.7745487830662918,16.31064645862739,-4.4680546842872,0.9020382723719115,-0.39989731574516807,-0.06586231238976649,-0.14856395390378765,0.0,0.0,0.0,0.0,0.0,0.0,nan,nan,nan
44.404398624999885,1526045.437401725,-4463127.399451695,4278925.538781501,-1.94290377680772,16.803542839147976,-4.9437754519771335,0.9020386621301562,-0.3998974885352601,-0.06586126324866039,-0.14856158738269948,0.0,0.0,0.0,0.0,0.0,0.0,nan,nan,nan
44.47712989699994,1526045.2953225807,-4463126.170655388,4278925.177256966,-2.113995926798649,17.30446994416973,-5.427245460726761,0.9020390582308268,-0.3998976641371166,-0.06586019701758969,-0.14855918231220988,0.0,0.0,0.0,0.0,0.0,0.0,nan,nan,nan
44.54901020299985,1526045.1434845251,-4463124.927759395,4278924.787444295,-2.2820365032780865,17.796479655123623,-5.90210720333583,0.9020394472724395,-0.3998978366095068,-0.06585914977096238,-0.14855682006444962,0.0,0.0,0.0,0.0,0.0,0.0,nan,nan,nan
44.62537779400009,1526044.9690984155,-4463123.5678079445,4278924.336423677,-2.460814412439946,18.319945272979464,-6.4073268098813765,0.9020398611784615,-0.39989802010494424,-0.06585803557397851,-0.14855430679846146,0.0,0.0,0.0,0.0,0.0,0.0,nan,nan,nan
44.69753938000031,1526044.7916330807,-4463122.246637519,4278923.874349661,-2.6295261379260513,18.81395479199502,-6.884115324521964,0.9020402517854179,-0.39989819327129256,-0.06585698407818086,-0.14855193496595503,0.0,0.0,0.0,0.0,0.0,0.0,nan,nan,nan
44.77594276699983,1526044.5856299393,-4463120.772708916,4278923.335032192,-2.812797152133687,19.350614129562572,-7.402065136057334,0.9020406761063142,-0.39989838138391803,-0.06585584180648109,-0.1485493583725395,0.0,0.0,0.0,0.0,0.0,0.0,nan,nan,nan
44.84823284800041,1526044.3819990281,-4463119.371831791,4278922.7991637355,-2.982148411482803,19.846531679123764,-7.880691768165412,0.9020410682056558,-0.39989855521187995,-0.0658547862571039,-0.14854697739647613,0.0,0.0,0.0,0.0,0.0,0.0,nan,nan,nan
44.926277374000165,1526044.1493400547,-4463117.823460265,4278922.184333954,-3.1646474133117337,20.380968602471565,-8.39649297482735,0.9020414907518018,-0.39989874253771196,-0.06585364872408049,-0.14854441149197312,0.0,0.0,0.0,0.0,0.0,0.0,nan,nan,nan
44.99861278699973,1526043.9202918594,-4463116.348343619,4278921.57661963,-3.333947532601494,20.876771772933175,-8.87500581801447,0.9020418827444336,-0.39989891631836666,-0.06585259342587682,-0.14854203108247546,0.0,0.0,0.0,0.0,0.0,0.0,nan,nan,nan
45.09349037100037,1526043.6596404375,-4463114.716176286,4278920.882762614,-3.516818126077112,21.412335088959786,-9.39189047042471,0.9020423061635475,-0.39989910403120826,-0.06585145350373602,-0.1485394597889007,0.0,0.0,0.0,0.0,0.0,0.0,nan,nan,nan
45.1677407520001,1526043.340342397,-4463112.772113104,4278920.030056527,-3.7291790699034046,22.03428828343653,-9.992149794835944,0.9020427978716232,-0.39989932201834466,-0.06585012970971359,-0.14853647374016785,0.0,0.0,0.0,0.0,0.0,0.0,nan,nan,nan
45.239500894999765,1526043.0726699338,-4463111.190539221,4278919.312841478,-3.89706033745599,22.525992579431414,-10.46670129829068,0.9020431865976668,-0.39989949435083477,-0.06584908314824506,-0.14853411303790295,0.0,0.0,0.0,0.0,0.0,0.0,nan,nan,nan
45.317086813999595,1526048.0808025543,-4463122.9481250765,4278932.6966186445,-1.2547530239356823,15.905225140268147,-3.4275134503378055,0.9020435777580404,-0.39989966776252744,-0.06584803001561985,-0.14853173751324597,0.0,0.0,0.0,0.0,0.0,0.0,42.404848,-71.123218,28.5
45.389750630999515,1526047.9827120006,-4463121.704731111,4278932.428672136,-1.437666022230007,16.440722272997448,-3.944357689183191,0.9020440011162238,-0.399899855448357,-0.06584689017638555,-0.14852916640668135,0.0,0.0,0.0,0.0,0.0,0.0,nan,nan,nan
45.46251669399953,1526047.8786777616,-4463120.515026407,4278932.143245448,-1.6069748552348346,16.936410143278852,-4.4227775757051555,0.9020443929934924,-0.39990002917786804,-0.06584583507753608,-0.14852678644686193,0.0,0.0,0.0,0.0,0.0,0.0,nan,nan,nan
45.53670490999957,1526047.758828317,-4463119.251895661,4278931.813391229,-1.7814666627446742,17.447289806585683,-4.915858348601491,0.9020447968728577,-0.39990020822822464,-0.0658447476458098,-0.1485243335545892,0.0,0.0,0.0,0.0,0.0,0.0,nan,nan,nan
45.60877045899997,1526047.630531303,-4463117.9953831285,4278931.459362742,-1.9499563461414855,17.940613805136636,-5.391993419559125,0.9020451868655963,-0.399900381122274,-0.06584369758585704,-0.1485219649608818,0.0,0.0,0.0,0.0,0.0,0.0,nan,nan,nan
45.681491065000046,1526047.4893181592,-4463116.69614867,4278931.0688820295,-2.1193790235538397,18.436686470556836,-5.870779762687404,0.9020455790234879,-0.3999005549761927,-0.0658426416788612,-0.14851958317814706,0.0,0.0,0.0,0.0,0.0,0.0,nan,nan,nan
45.75324458399973,1526047.3366230659,-4463115.367839042,4278930.645909426,-2.287927384931017,18.930216067012836,-6.347110030201559,0.9020459691632633,-0.39990072793542736,-0.06584159118849689,-0.14851721361357126,0.0,0.0,0.0,0.0,0.0,0.0,nan,nan,nan
45.82954051100023,1526047.1620525636,-4463113.923449964,4278930.161620373,-2.4664213594179722,19.45288545153045,-6.851562864318307,0.9020463823299243,-0.3999009111030867,-0.06584047867717095,-0.14851470414987913,0.0,0.0,0.0,0.0,0.0,0.0,nan,nan,nan
45.902345780999894,1526046.9836682342,-4463112.516516834,4278929.666079965,-2.635609705042053,19.9483238425862,-7.329732067502956,0.9020467739626054,-0.3999010847241657,-0.06583942413139338,-0.14851232543761,0.0,0.0,0.0,0.0,0.0,0.0,nan,nan,nan
45.98132531200008,1526046.7750570271,-4463110.937586574,4278929.085924166,-2.8207599828840624,20.490522544692567,-7.853029905635202,0.9020472025493668,-0.39990127472796155,-0.06583827005981603,-0.14850972222750872,0.0,0.0,0.0,0.0,0.0,0.0,nan,nan,nan
46.08443832800003,1526046.568386637,-4463109.436294611,4278928.5105513,-2.9921421114040805,20.992421089582074,-8.33743063223576,0.9020475992720296,-0.3999014506055635,-0.06583720177136859,-0.1485073125162464,0.0,0.0,0.0,0.0,0.0,0.0,nan,nan,nan
46.15461261600012,1526046.2683541975,-4463107.331311936,4278927.674528291,-3.226687046397452,21.679317980404058,-9.000377774111396,0.9020481422129005,-0.3999016913055469,-0.06583573972000956,-0.1485040146039322,0.0,0.0,0.0,0.0,0.0,0.0,nan,nan,nan
46.230455019000146,1526046.0235898667,-4463105.686800497,4278926.99179352,-3.4041113429457655,22.198953982983166,-9.501893477366355,0.902048552936211,-0.39990187339000466,-0.06583463368685578,-0.14850151975288933,0.0,0.0,0.0,0.0,0.0,0.0,nan,nan,nan
46.609797692999564,1526050.7464554363,-4463115.750819481,4278939.2799287345,-1.1530970750521314,15.185140550434602,-3.7129511649267215,0.902050575624958,-0.39990277010118275,-0.06582918652784936,-0.14848923273393216,0.0,0.0,0.0,0.0,0.0,0.0,42.404925,-71.123161,28.4
46.68263333699997,1526050.6557944242,-4463114.556904205,4278938.988001959,-1.3370685839657974,15.723709435833149,-4.232762921609318,0.9020510012913837,-0.39990295881031684,-0.06582804013694939,-0.1484866468489408,0.0,0.0,0.0,0.0,0.0,0.0,nan,nan,nan
46.75516920100017,1526050.558900642,-4463113.417449059,4278938.681264957,-1.5066287032598487,16.22010808586609,-4.711871354798153,0.902051393619706,-0.39990313273979194,-0.0658269835129799,-0.14848426344894675,0.0,0.0,0.0,0.0,0.0,0.0,nan,nan,nan
46.83419673000026,1526050.4399919286,-4463112.137298098,4278938.3093866315,-1.6912899132726331,16.760734769519576,-5.233665512882617,0.902051820894819,-0.39990332216209945,-0.06582583275002195,-0.14848166770201462,0.0,0.0,0.0,0.0,0.0,0.0,nan,nan,nan
47.21615997000026,1526049.8110162134,-4463105.904129522,4278936.363032855,-2.5613908275293378,19.308196551225066,-7.692378252347375,0.9020538341289747,-0.39990421468180826,-0.06582041030899151,-0.14846943643877142,0.0,0.0,0.0,0.0,0.0,0.0,nan,nan,nan
47.293159744999684,1526049.5875729541,-4463104.219776505,4278935.691987246,-2.765459932459189,19.905770832364645,-8.269123964157242,0.9020543063526897,-0.39990442403101456,-0.06581913835610646,-0.14846656732678243,0.0,0.0,0.0,0.0,0.0,0.0,nan,nan,nan
47.36500246899959,1526049.3888583693,-4463102.7894296255,4278935.097801984,-2.9335462360159172,20.397997264234956,-8.744191787030065,0.9020546953182107,-0.39990459646967125,-0.06581809064343304,-0.14846420402777374,0.0,0.0,0.0,0.0,0.0,0.0,nan,nan,nan
47.43755345699992,1526049.1757416595,-4463101.307552841,4278934.462552619,-3.103480686505114,20.89565279528119,-9.224497823143015,0.9020550885660517,-0.3999047708067932,-0.06581703137854181,-0.1484618146707192,0.0,0.0,0.0,0.0,0.0,0.0,nan,nan,nan
47.5098188310003,1526048.9525090323,-4463099.804533509,4278933.799036686,-3.271729598380147,21.388389177911662,-9.700054570785868,0.902055477918984,-0.3999049434171996,-0.06581598258784964,-0.14845944894005086,0.0,0.0,0.0,0.0,0.0,0.0,nan,nan,nan
47.58587947500018,1526048.702506339,-4463098.170182398,4278933.057826358,-3.4504597556848924,21.911838955512234,-10.205252148834534,0.9020558915327408,-0.3999051267830683,-0.06581486842755084,-0.14845693575681232,0.0,0.0,0.0,0.0,0.0,0.0,nan,nan,nan
47.66395366699999,1526052.834180179,-4463108.646340649,4278945.401073401,-1.424169561613395,16.360962285558497,-4.126105139995681,0.9020562832496547,-0.3999053004414899,-0.06581381323338906,-0.14845455558199938,0.0,0.0,0.0,0.0,0.0,0.0,42.405006,-71.123108,28.5
47.73652640399996,1526052.7227816686,-4463107.366586555,4278945.078329552,-1.607182754128226,16.89676651302639,-4.643247103741932,0.9020567066302725,-0.39990548813726523,-0.06581267272504127,-0.14845198296613235,0.0,0.0,0.0,0.0,0.0,0.0,nan,nan,nan
47.80913522300034,1526052.6065793452,-4463106.144918689,4278944.7426140895,-1.7763436428195256,17.392033979983463,-5.121262455754159,0.9020570979714927,-0.399905661629132,-0.06581161850679525,-0.14844960499266793,0.0,0.0,0.0,0.0,0.0,0.0,nan,nan,nan
47.88825274899955,1526052.4661651019,-4463104.770134422,4278944.337794788,-1.9612796063669227,17.933506104316525,-5.643871194580108,0.9020575258130274,-0.39990585130254924,-0.06581046594198481,-0.14844700518134274,0.0,0.0,0.0,0.0,0.0,0.0,nan,nan,nan
47.961200429999735,1526052.3225351146,-4463103.456813646,4278943.924478326,-2.1326076149505164,18.435154434896752,-6.128041686646622,0.9020579221796253,-0.39990602702229827,-0.06580939814919028,-0.14844459658811215,0.0,0.0,0.0,0.0,0.0,0.0,nan,nan,nan
48.038520400999914,1526052.15795064,-4463102.0340764355,4278943.451545324,-2.3131533764163272,18.96381069620034,-6.63827737032349,0.9020583398773532,-0.3999062121986988,-0.06580827287208697,-0.14844205832897853,0.0,0.0,0.0,0.0,0.0,0.0,nan,nan,nan
48.42145568700016,1526051.2968330556,-4463094.974418817,4278940.980313874,-3.1840233810829197,21.513899510062764,-9.09950155898511,0.9020603546247642,-0.39990710538927354,-0.06580284486775823,-0.1484298145167439,0.0,0.0,0.0,0.0,0.0,0.0,nan,nan,nan
48.49334182599978,1526051.0341440325,-4463093.1994741745,4278940.229584722,-3.3769948416200286,22.079059900206875,-9.644957864769882,0.9020608011092512,-0.39990730332760244,-0.06580164191540196,-0.14842710104750448,0.0,0.0,0.0,0.0,0.0,0.0,nan,nan,nan
48.56395143000009,1526050.7963173843,-4463091.644544701,4278939.550333462,-3.5417133940137906,22.561494158049744,-10.110570440877337,0.9020611822307578,-0.399907472288801,-0.06580061505107393,-0.1484247847755818,0.0,0.0,0.0,0.0,0.0,0.0,nan,nan,nan
48.63935884999955,1526050.5287641145,-4463089.94017146,4278938.786546028,-3.7183970774156796,23.078989650239752,-10.61002006704895,0.9020615910423143,-0.3999076535257279,-0.0657995135625193,-0.14842230017567645,0.0,0.0,0.0,0.0,0.0,0.0,nan,nan,nan
48.71728667200023,1526055.515152935,-4463101.517155565,4278951.502865625,-1.1719075800725047,16.725087378257,-4.118570077737113,0.9020619843385665,-0.3999078278843118,-0.06579845386002196,-0.14841990983152487,0.0,0.0,0.0,0.0,0.0,0.0,42.405081,-71.123048,28.6
48.789739081000334,1526055.423964958,-4463100.215750141,4278951.182393192,-1.3539614369942317,17.25809042341069,-4.633012743701631,0.9020624054103681,-0.399908014556528,-0.06579731929929605,-0.14841735063155828,0.0,0.0,0.0,0.0,0.0,0.0,nan,nan,nan
48.863020124000286,1526055.3249662777,-4463098.953876554,4278950.843637498,-1.5250277742939702,17.758943533352205,-5.116423239037127,0.9020628010755077,-0.3999081899653021,-0.06579625317746864,-0.14841494580748602,0.0,0.0,0.0,0.0,0.0,0.0,nan,nan,nan
48.94099298600031,1526055.2055271592,-4463097.563008403,4278950.442922776,-1.7082579204946367,18.2954287913201,-5.634223183167139,0.902063224880655,-0.3999083778492825,-0.06579511121256038,-0.14841236990609233,0.0,0.0,0.0,0.0,0.0,0.0,nan,nan,nan
49.01355718200011,1526055.0824349208,-4463096.244691508,4278950.036936576,-1.8768320865645376,18.789020665617322,-6.1106219277785865,0.9020636147933543,-0.39990855070784836,-0.06579406055462733,-0.1484099999635359,0.0,0.0,0.0,0.0,0.0,0.0,nan,nan,nan
49.101823230000264,1526054.935439996,-4463094.773121036,4278949.558347992,-2.060054064703607,19.32552023567055,-6.628432022928328,0.9020640385922677,-0.3999087385890651,-0.06579291856743,-0.14840742401186535,0.0,0.0,0.0,0.0,0.0,0.0,nan,nan,nan
49.173813948000316,1526054.7654467819,-4463093.178402064,4278949.011377656,-2.253090518429235,19.890778941135004,-7.173997391742301,0.9020644850991372,-0.3999089365373167,-0.06579171536835117,-0.1484047099861001,0.0,0.0,0.0,0.0,0.0,0.0,nan,nan,nan
49.245516510000016,1526054.604605898,-4463091.758463345,4278948.499249061,-2.4200800068017205,20.3797847814048,-7.645964676023121,0.9020648713643369,-0.3999091077788499,-0.06579067448386541,-0.14840236208926183,0.0,0.0,0.0,0.0,0.0,0.0,nan,nan,nan
49.31601020299968,1526054.4336034006,-4463090.318430748,4278947.9589863205,-2.585364095753703,20.863812967548107,-8.113126175293797,0.9020652536901885,-0.39990927727396647,-0.06578964419824396,-0.148400038100014,0.0,0.0,0.0,0.0,0.0,0.0,nan,nan,nan
49.39166719599962,1526054.2382162414,-4463088.741662062,4278947.345842246,-2.7621386532992434,21.381507890677145,-8.612779583134389,0.9020656626006327,-0.39990945855473276,-0.06578854225454618,-0.14839755247345374,0.0,0.0,0.0,0.0,0.0,0.0,nan,nan,nan
49.77096616400013,1526058.3042100968,-4463094.248038163,4278958.029477415,-0.9269999687525368,16.764063863484342,-3.6933088384482105,0.9020676865468783,-0.3999103558233931,-0.06578308778648848,-0.1483852489676542,0.0,0.0,0.0,0.0,0.0,0.0,42.405161,-71.122988,28.6
49.84380105800028,1526058.231865373,-4463092.939740847,4278957.741245033,-1.1095923085645674,17.298640099357456,-4.209274230827995,0.9020681087657488,-0.39991054300413525,-0.06578194986206633,-0.14838268218028297,0.0,0.0,0.0,0.0,0.0,0.0,nan,nan,nan
49.91609284799961,1526058.151558958,-4463091.68775689,4278957.4366000565,-1.2789199849720037,17.794399658624172,-4.6877725656016525,0.9020685003182985,-0.39991071658968996,-0.06578089456854797,-0.14838030178135386,0.0,0.0,0.0,0.0,0.0,0.0,nan,nan,nan
49.99434311599998,1526058.0517710855,-4463090.2993469,4278957.070836087,-1.4614617809470252,18.328865994127778,-5.203628242260016,0.9020689224329301,-0.3999109037242202,-0.06577975688610592,-0.14837773553981104,0.0,0.0,0.0,0.0,0.0,0.0,nan,nan,nan
50.08460137899965,1526057.9452884058,-4463088.96389852,4278956.691697688,-1.63191499522735,18.827956470171095,-5.685338118846799,0.9020693165999314,-0.3999110784688301,-0.06577869450981014,-0.14837533916443985,0.0,0.0,0.0,0.0,0.0,0.0,nan,nan,nan
50.15764318099991,1526057.7976225326,-4463087.260227287,4278956.177252744,-1.8435965402772618,19.44778572855377,-6.283580058918648,0.9020698061121042,-0.39991129548246496,-0.06577737513046822,-0.14837236307379026,0.0,0.0,0.0,0.0,0.0,0.0,nan,nan,nan
50.22974768699987,1526057.6646204009,-4463085.857210466,4278955.723937974,-2.01235929584294,19.94196474350498,-6.760545857606717,0.9020701963826541,-0.39991146849967535,-0.0657763232170277,-0.14836999029921738,0.0,0.0,0.0,0.0,0.0,0.0,nan,nan,nan
50.303935945000376,1526057.5150833158,-4463084.375336288,4278955.221566294,-2.186185052813672,20.45098687219707,-7.251836092273553,0.9020705983672395,-0.3999116467100262,-0.06577523971216635,-0.1483675462646746,0.0,0.0,0.0,0.0,0.0,0.0,nan,nan,nan
50.37571079600002,1526057.358656524,-4463082.9120190535,4278954.702680003,-2.353556520442113,20.941125856011986,-7.724899330816269,0.902070985431622,-0.39991181830585826,-0.06577419640573345,-0.14836519290471134,0.0,0.0,0.0,0.0,0.0,0.0,nan,nan,nan
50.44910929300022,1526057.1858169322,-4463081.37415259,4278954.135381774,-2.5253326366200604,21.444180684999363,-8.210426814609535,0.9020713826877563,-0.3999119944199621,-0.06577312561043418,-0.14836277753880667,0.0,0.0,0.0,0.0,0.0,0.0,nan,nan,nan
50.52014933999999,1526057.0058826762,-4463079.846218154,4278953.550374865,-2.691990602614453,21.932263739442956,-8.681502544343093,0.9020717681131357,-0.39991216528918083,-0.06577208668756548,-0.14836043406673843,0.0,0.0,0.0,0.0,0.0,0.0,nan,nan,nan
50.59725165199961,1526056.7980903443,-4463078.153286455,4278952.880257497,-2.872530767104232,22.461020760062052,-9.191833243731073,0.90207218564909,-0.3999123503938629,-0.06577096119089289,-0.1483578953123279,0.0,0.0,0.0,0.0,0.0,0.0,nan,nan,nan
50.6695450670004,1526056.591112751,-4463076.534878021,4278952.217948307,-3.041055042287401,22.9546042941765,-9.66821446987346,0.9020725754019948,-0.39991252318158765,-0.06576991056747641,-0.14835552544762964,0.0,0.0,0.0,0.0,0.0,0.0,nan,nan,nan
51.049012737999874,1526061.932119404,-4463087.426195967,4278964.371997208,-0.7331248591264026,15.945069929335883,-4.390644226748401,0.9020745978064638,-0.3999134197667378,-0.065764458668727,-0.14834322773735392,0.0,0.0,0.0,0.0,0.0,0.0,42.405231,-71.122921,28.9
51.13195574099973,1526061.8746354415,-4463086.175950815,4278964.027728938,-0.9165873512547866,16.482161977623825,-4.909041546304236,0.9020750218946968,-0.39991360777621754,-0.06576331537359847,-0.14834064883541598,0.0,0.0,0.0,0.0,0.0,0.0,nan,nan,nan
51.207707272000334,1526061.796267616,-4463084.766733036,4278963.608007992,-1.1166325568968989,17.067822177904453,-5.474314395634615,0.9020754843220503,-0.39991381278243887,-0.06576206869716143,-0.14833783673887221,0.0,0.0,0.0,0.0,0.0,0.0,nan,nan,nan
51.279171176999625,1526061.7159081649,-4463083.5384320915,4278963.214044106,-1.285006652253401,17.56078075679811,-5.950110725905007,0.9020758735452109,-0.3999139853353141,-0.06576101935602852,-0.1483354697665886,0.0,0.0,0.0,0.0,0.0,0.0,nan,nan,nan
51.35224476999974,1526061.6219184864,-4463082.253977934,4278962.778833134,-1.4561303881621621,18.061806697596552,-6.433691909235445,0.9020762691301967,-0.39991416070855385,-0.06575995284586775,-0.14833306406656258,0.0,0.0,0.0,0.0,0.0,0.0,nan,nan,nan
51.423719925000114,1526061.5178864186,-4463080.96356664,4278962.319183175,-1.6232737328012614,18.551195576220735,-6.906039577063231,0.9020766555194292,-0.3999143320050741,-0.06575891111061037,-0.14833071425066022,0.0,0.0,0.0,0.0,0.0,0.0,nan,nan,nan
51.500745282000025,1526061.3930891552,-4463079.537350966,4278961.788246943,-1.8031286843220329,19.077821343716586,-7.414325775960981,0.9020770713000177,-0.3999145163315563,-0.06575779011505163,-0.14832818564929853,0.0,0.0,0.0,0.0,0.0,0.0,nan,nan,nan
51.57419011099955,1526061.2603638766,-4463078.13306453,4278961.242490856,-1.9753242689569246,19.5820384032552,-7.900981873950824,0.9020774693802258,-0.39991469281099384,-0.0657567168235019,-0.14832576465266475,0.0,0.0,0.0,0.0,0.0,0.0,nan,nan,nan
51.65088910600025,1526061.108991246,-4463076.632457915,4278960.637024488,-2.154587260764478,20.10696830154378,-8.40762765717363,0.9020778838046922,-0.3999148765362714,-0.06575559944595287,-0.14832324421235615,0.0,0.0,0.0,0.0,0.0,0.0,nan,nan,nan
51.723161646000335,1526060.9532368546,-4463075.178931912,4278960.029239901,-2.3236873916660454,20.60215660794162,-8.885566062382486,0.9020782747405162,-0.3999150498484153,-0.06575454538096413,-0.1483208665845903,0.0,0.0,0.0,0.0,0.0,0.0,nan,nan,nan
51.80128379399957,1526060.7715781871,-4463073.568319258,4278959.3345939275,-2.5065534071270226,21.13767490408561,-9.402427794432478,0.902078697506888,-0.39991523727187916,-0.06575340547298189,-0.14831829532295268,0.0,0.0,0.0,0.0,0.0,0.0,nan,nan,nan
51.87317026599976,1526060.591239159,-4463072.047526708,4278958.658117342,-2.674841397688096,21.630520094084048,-9.878101322195498,0.9020790865767089,-0.3999154097567748,-0.06575235640331581,-0.14831592896300994,0.0,0.0,0.0,0.0,0.0,0.0,nan,nan,nan
