# t [sec],r_ecef_X,r_ecef_Y,r_ecef_Z,v_ecef_X,v_ecef_Y,v_ecef_Z,q_e2b_scalar,q_e2b_i,q_e2b_j,q_e2b_k,accel_X [m/s^2],accel_Y [m/s^2],accel_Z [m/s^2],gyro_X [rad/s],gyro_Y [rad/s],gyro_Z [rad/s],gps_lat [deg],gps_long [deg],gps_alt [m]
0.0,1526839.5903853716,-4462991.329755256,4278799.888598931,0.0,0.0,0.0,0.901797015,-0.39979036,-0.066508461,-0.150021455,0.0,0.0,0.0,0.0,0.0,0.0,0.0,0.0,0.0
0.0766193330000533,1526839.5903853716,-4462991.329755256,4278799.888598931,-7.423690841620867e-05,-0.0032318575862331778,-0.0015109894340824548,0.9018211003071365,-0.39974745485457897,-0.06650875872007093,-0.14999086955002605,-0.0184,-0.012799999999999992,9.823513300000002,-0.0014835298641951802,-0.00017453292519943315,-0.0010471975511965976,nan,nan,nan
0.25278808300026867,1526839.59037214,-4462991.330331286,4278799.88832962,-0.0015315260221348825,-0.00340454986170996,-0.006536696019799337,0.9018850828460026,-0.39957455233330413,-0.06681147113544833,-0.14993232589725827,-0.008400000000000019,0.017200000000000007,9.783513300000001,-0.0014835298641951802,0.0030979594222899347,-0.002138028333693054,nan,nan,nan
0.32757945800040034,1526839.5902579261,-4462991.330585182,4278799.887842144,-0.0009294599200705966,-0.005790006879100529,-0.0070451263339376125,0.9019104998859531,-0.3995320257919708,-0.06675888751798,-0.1499161834364177,-0.008400000000000019,0.007200000000000012,9.823513300000002,-0.0014835298641951802,-0.0012653637076958891,4.363323129985828e-05,nan,nan,nan
0.40232374999959575,1526839.590188456,-4462991.331017941,4278799.887315573,-0.00026712556778460406,-0.008579212517281942,-0.009103944460049473,0.9019386880036766,-0.3994955117129718,-0.06666941860637818,-0.14988371620303048,-0.008400000000000019,-0.012799999999999992,9.813513300000002,-0.0014835298641951802,-0.002356194490192345,4.363323129985828e-05,nan,nan,nan
0.47810437499992986,1526839.5901681453,-4462991.331670259,4278799.886623357,0.0017177577330125537,-0.010964642239772948,-0.01006375381165292,0.9019625100888194,-0.3994307342291085,-0.06674458512735457,-0.14987955117491758,0.0116,-0.002799999999999997,9.823513300000002,-0.0014835298641951802,0.002007128639793479,-0.0010471975511965976,nan,nan,nan
0.5800734169997668,1526839.5902961693,-4462991.332487451,4278799.885873308,0.002881309458702186,-0.0129823984832112,-0.010391164368630357,0.9019926407363202,-0.39941530083098953,-0.06652913745431138,-0.14983513588588235,0.0015999999999999903,0.007200000000000012,9.823513300000002,-0.0014835298641951802,-0.005628686837681713,0.0011344640137963143,nan,nan,nan
0.65507795800022,1526839.5905906807,-4462991.333814439,4278799.884811182,0.0035272147160628486,-0.017447526679259695,-0.012271185617371227,0.9020098261149043,-0.399395221286079,-0.06653797249339534,-0.14978127245826756,-0.008400000000000019,-0.012799999999999992,9.823513300000002,-0.0003926990816987242,-0.00017453292519943315,-0.0010471975511965976,nan,nan,nan
0.7294196670000019,1526839.5908537384,-4462991.335115666,4278799.8838960035,0.004323977906160903,-0.019406151012923145,-0.014623877893344794,0.9020352215695898,-0.3993526771758703,-0.06648538921786035,-0.14976512230042446,0.0015999999999999903,-0.012799999999999992,9.8035133,-0.0014835298641951802,-0.0012653637076958891,4.363323129985828e-05,nan,nan,nan
0.8038375830001314,1526839.5911755709,-4462991.336560059,4278799.882807553,0.0034969110067776255,-0.021436356560829817,-0.014257683016008438,0.902047047184082,-0.3993529134190446,-0.06640237268772305,-0.14973009272816853,-0.0184,0.017200000000000007,9.823513300000002,-0.0003926990816987242,-0.002356194490192345,4.363323129985828e-05,nan,nan,nan
0.8783372079997207,1526839.5914361088,-4462991.338157179,4278799.881745282,0.0035685875077582363,-0.024204466509748224,-0.01497879339612257,0.9020480362225194,-0.39940196661488986,-0.06625204345251959,-0.14965987005996517,-0.008400000000000019,-0.002799999999999997,9.823513300000002,0.0006981317007977317,-0.004537856055185257,4.363323129985828e-05,nan,nan,nan
0.9505982500004393,1526839.5916937294,-4462991.339904528,4278799.880663944,0.003400474584403873,-0.026941683440900144,-0.016724691839592576,0.9020588262391334,-0.39942398296894255,-0.06626011207320666,-0.14953245112046626,-0.008400000000000019,-0.012799999999999992,9.813513300000002,0.0006981317007977317,-0.0012653637076958891,-0.00322885911618951,nan,nan,nan
1.0330788330002179,1526839.590417962,-4462991.329883058,4278799.888632693,0.000519693886302412,-0.006750745934282688,0.004558611573264315,0.90263871314472,-0.3980904990769714,-0.06610446076669303,-0.14965797306051448,-0.008400000000000019,0.017200000000000007,9.813513300000002,0.0006981317007977317,-0.004537856055185257,4.363323129985828e-05,42.403165,-71.113605,32.5
1.1068036670003494,1526839.59045962,-4462991.330424189,4278799.888998106,-0.0001243156625317615,-0.008335788214033114,0.004298351492850516,0.9026898518974086,-0.398002371444863,-0.06605878648714086,-0.14960408046003051,-0.008400000000000019,-0.012799999999999992,9.813513300000002,-0.0025743606466916364,-0.0012653637076958891,-0.0010471975511965976,nan,nan,nan
1.1818142499996611,1526839.5904503278,-4462991.331047262,4278799.889319394,-0.0009782711593754284,-0.009310212567298894,0.005775438460583759,0.9026914291401145,-0.3980289487558895,-0.06581628504942183,-0.14963073510578495,-0.008400000000000019,0.007200000000000012,9.823513300000002,-0.0003926990816987242,-0.005628686837681713,0.0033161255787892262,nan,nan,nan
1.2560620000003837,1526839.5903773864,-4462991.331741446,4278799.88975002,-0.002850257736483948,-0.010564149761221754,0.006210814698206335,0.9027058699275098,-0.39803524428448606,-0.06569636148771474,-0.1495795619388821,-0.0184,-0.002799999999999997,9.813513300000002,-0.0003926990816987242,-0.003447025272688801,4.363323129985828e-05,nan,nan,nan
1.3307503340001858,1526839.5901653222,-4462991.332527437,4278799.890212115,-0.003479962001933425,-0.01142833811378572,0.00771255802934373,0.9027176024904859,-0.3980354509613309,-0.06561332578342596,-0.1495446487448542,0.0015999999999999903,0.007200000000000012,9.823513300000002,-0.0003926990816987242,-0.002356194490192345,4.363323129985828e-05,nan,nan,nan
1.4026951249998092,1526839.589914647,-4462991.333350665,4278799.8907676805,-0.005566289092821471,-0.010554398653815168,0.008255417271780863,0.9027184631135559,-0.3980828605495749,-0.06546787419795415,-0.1494769898523275,-0.008400000000000019,0.017200000000000007,9.7935133,0.0006981317007977317,-0.004537856055185257,4.363323129985828e-05,nan,nan,nan
1.4787137920002351,1526839.589490197,-4462991.334155477,4278799.891397187,-0.006959764774179002,-0.012792387139382945,0.00865613929192649,0.9026960328208604,-0.3981136182356874,-0.06543096403330691,-0.1495466776868884,-0.008400000000000019,-0.012799999999999992,9.823513300000002,0.0006981317007977317,-0.00017453292519943315,0.00222529479629277,nan,nan,nan
1.5721480840002187,1526839.5889706118,-4462991.3351104995,4278799.892043415,-0.007960471763691353,-0.013773513147644446,0.009067901209423856,0.9027099127802681,-0.3980614624846126,-0.06543561520520558,-0.14959968673868518,0.0015999999999999903,-0.002799999999999997,9.813513300000002,-0.0014835298641951802,0.0009162978572970228,0.0011344640137963143,nan,nan,nan
1.6439467500003957,1526839.5882515481,-4462991.3363546515,4278799.892862513,-0.008889570718989378,-0.015620796735317723,0.012800274808365264,0.9027135373069464,-0.39805756829009437,-0.06535966535596743,-0.14962137745341614,0.0015999999999999903,0.017200000000000007,9.843513300000001,-0.0003926990816987242,-0.0012653637076958891,0.0011344640137963143,nan,nan,nan
1.7208449999998265,1526839.587565003,-4462991.337561052,4278799.893851084,-0.009988240677966605,-0.016578370308852043,0.013308059485130641,0.90272018310006,-0.3980451818789628,-0.06534952098270089,-0.14961866484771788,0.0015999999999999903,-0.002799999999999997,9.813513300000002,-0.0003926990816987242,-0.00017453292519943315,4.363323129985828e-05,nan,nan,nan
1.7947058749996359,1526839.586827703,-4462991.338784815,4278799.894833442,-0.010880228918624942,-0.0179997488117987,0.01430756565381719,0.9027306806091152,-0.3980100059892539,-0.06548090847385804,-0.14959145898620252,0.0015999999999999903,-0.002799999999999997,9.823513300000002,-0.0003926990816987242,0.0030979594222899347,-0.002138028333693054,nan,nan,nan
1.8721110420001423,1526839.5859880254,-4462991.340173938,4278799.8959376225,-0.012936358443824538,-0.018047172842876193,0.01380638261114564,0.9027436174585359,-0.39799487209569206,-0.06548752506318585,-0.1495507523928033,-0.008400000000000019,-0.002799999999999997,9.7935133,-0.0003926990816987242,-0.00017453292519943315,-0.0010471975511965976,nan,nan,nan
1.945405084000413,1526839.585040677,-4462991.34149556,4278799.896948684,-0.015928990840802456,-0.019622204178829906,0.015368377089843621,0.9027314061136701,-0.398013210222373,-0.06551993720369574,-0.14956146325202083,-0.02840000000000001,0.007200000000000012,9.823513300000002,0.0006981317007977317,0.0009162978572970228,4.363323129985828e-05,nan,nan,nan
2.022672084000078,1526839.5838097637,-4462991.343011866,4278799.898136276,-0.017386498017257886,-0.02133583345587723,0.01751058653231663,0.9027372708837712,-0.3980161830187808,-0.06541691768329198,-0.14956324832672943,-0.008400000000000019,0.007200000000000012,9.833513300000002,-0.0003926990816987242,-0.002356194490192345,0.0011344640137963143,nan,nan,nan
2.102597541999785,1526839.5906540581,-4462991.330696366,4278799.8894902095,-0.005105376171317818,-0.010941087170266645,0.010800870901259727,0.9027090889756517,-0.3979389548018412,-0.06584408968231376,-0.1497512782670621,-0.008400000000000019,-0.012799999999999992,9.823513300000002,-0.0003926990816987242,-0.0012653637076958891,4.363323129985828e-05,42.403165,-71.113605,32.5
2.1828042500001175,1526839.5902124688,-4462991.331642714,4278799.89042443,-0.006149090510069651,-0.012574717940443509,0.012005099983773335,0.9027235973457268,-0.39792197941886703,-0.06585149980508939,-0.149705663288753,-0.008400000000000019,-0.002799999999999997,9.823513300000002,-0.0003926990816987242,-0.00017453292519943315,-0.0010471975511965976,nan,nan,nan
2.2567630840003403,1526839.5897552087,-4462991.3325777985,4278799.891317156,-0.008473198269349532,-0.014447888572968299,0.013058389919093114,0.9027063066938907,-0.3979789588949536,-0.06565293281658377,-0.1497456680551721,-0.02840000000000001,-0.002799999999999997,9.823513300000002,0.0006981317007977317,-0.004537856055185257,0.0033161255787892262,nan,nan,nan
2.3332937089999177,1526839.5891099372,-4462991.333678069,4278799.89231161,-0.007316447580189707,-0.015730930960228144,0.01354774828588565,0.9027383347056847,-0.39793274409501295,-0.06561574413183381,-0.14969169953137196,0.02159999999999998,-0.012799999999999992,9.823513300000002,-0.0014835298641951802,-0.0012653637076958891,-0.0010471975511965976,nan,nan,nan
2.407904167000197,1526839.588564276,-4462991.334851283,4278799.893322002,-0.009582998963670987,-0.016492153073934028,0.01573756656621764,0.9027426532269159,-0.39797309887271154,-0.06551805987541819,-0.14960113303509767,-0.0184,0.017200000000000007,9.823513300000002,0.0006981317007977317,-0.003447025272688801,-0.0010471975511965976,nan,nan,nan
2.4841195839999273,1526839.5878349587,-4462991.336106423,4278799.894519715,-0.010091486122732309,-0.016088704638313238,0.01743152421193098,0.9027546374546787,-0.3979733108336296,-0.06543311954462046,-0.14956542328223768,0.0116,0.017200000000000007,9.813513300000002,-0.0003926990816987242,-0.002356194490192345,4.363323129985828e-05,nan,nan,nan
2.580331959000432,1526839.5870809653,-4462991.337308504,4278799.895822125,-0.010914325874291588,-0.015154609433174253,0.0175510358728683,0.9027860422439282,-0.3979279659028384,-0.06539664088976105,-0.14951246034713556,0.0116,0.007200000000000012,9.7935133,-0.0014835298641951802,-0.0012653637076958891,-0.0010471975511965976,nan,nan,nan
2.6546627500001705,1526839.5860305238,-4462991.338767048,4278799.897511312,-0.01299458944079915,-0.01722516843191723,0.02037786066887379,0.9027792931931687,-0.397994733393256,-0.06518139890111369,-0.1494694810552046,-0.008400000000000019,0.007200000000000012,9.833513300000002,0.0006981317007977317,-0.004537856055185257,0.0011344640137963143,nan,nan,nan
2.7349334999998973,1526839.5849872255,-4462991.340150007,4278799.899147391,-0.012053250862117728,-0.02042271554594232,0.021463274659109997,0.9027670793360406,-0.3980532670621547,-0.06498441246377988,-0.14947315391635266,0.02159999999999998,-0.022799999999999987,9.843513300000001,0.0006981317007977317,-0.004537856055185257,0.00222529479629277,nan,nan,nan
2.809456500000124,1526839.584088864,-4462991.341672167,4278799.900747107,-0.006349465382280846,-0.019887151964862675,0.017783123634171203,0.9028036634559283,-0.3980201940110396,-0.06487463283295111,-0.1493879278305431,0.1016,-0.052799999999999986,9.783513300000001,-0.0014835298641951802,-0.003447025272688801,-0.0010471975511965976,nan,nan,nan
2.885582916999738,1526839.5836055153,-4462991.343186064,4278799.902100836,-0.016847998460683633,-0.02399369717405985,0.02055727961512763,0.9028740524776236,-0.39791143444429083,-0.06475010235318125,-0.14930626411211578,-0.11840000000000003,0.017200000000000007,9.833513300000002,-0.003665191429188092,-0.003447025272688801,-0.0010471975511965976,nan,nan,nan
2.9600956670001324,1526839.582348901,-4462991.344975643,4278799.903634109,-0.024630110573551578,-0.02208670816971358,0.02522501384671397,0.9029075637550816,-0.39781385705811084,-0.06480161966980565,-0.1493412772522269,-0.05840000000000001,0.0772,9.8035133,-0.0025743606466916364,0.002007128639793479,4.363323129985828e-05,nan,nan,nan
3.036941958999705,1526839.5804545993,-4462991.346674331,4278799.905574164,-0.042848683946848015,-0.020885884612753196,0.0362236851897684,0.9030336543151759,-0.3976782760243695,-0.06436025186324489,-0.14913070270507314,-0.18839999999999998,0.1572,9.833513300000002,-0.005846852994181004,-0.012173671532660447,-0.0010471975511965976,nan,nan,nan
3.1171469170003547,1526839.5137328266,-4462991.358316925,4278799.890688178,-0.17785133323345986,-0.011924036028453832,0.06419045839010776,0.9023405343631888,-0.39865604256186105,-0.05947191883265917,-0.15270236147871502,-0.3184,0.8572,9.703513300000001,-0.0025743606466916364,0.014006267247254494,0.14403329652083205,42.403165,-71.113606,32.5
3.1954081249996307,1526839.4986915023,-4462991.359325371,4278799.896116923,-0.1834299908071449,-0.05555733660024954,0.007002279898241565,0.8987056856546726,-0.4062403401109412,-0.0630572119235427,-0.15271105139997274,-0.1384,-0.8228,9.693513300000001,0.20904681115762083,0.05436700619962337,-0.009773843811168244,nan,nan,nan
3.280241792000197,1526839.4832189074,-4462991.364011715,4278799.896707576,-0.1917885576256512,-0.12586508025178322,-0.06025672697083892,0.898212602306968,-0.40777740391283507,-0.06141194231643562,-0.15218503150021037,-0.3184,-0.9328000000000001,9.843513300000001,0.03233222439319495,-0.044898595007554123,0.008770279491271507,nan,nan,nan
3.3519437089998974,1526839.4693687847,-4462991.373101136,4278799.892356101,-0.12597166731650414,-0.0891760470252409,-0.04811474136731689,0.8954705323065174,-0.4087117081445202,-0.053540503054719434,-0.16799012020253676,1.1216,0.4272,9.763513300000001,-0.005846852994181004,-0.016536994662646274,0.49528080848469086,nan,nan,nan
3.428983249999874,1526839.459660075,-4462991.379973985,4278799.88864787,-0.10935873154652251,-0.11881700574023696,-0.08347232274922314,0.8912950036077767,-0.409942744945335,-0.04407136934210644,-0.18867399760314907,0.1616,-0.45280000000000004,9.823513300000002,0.002879793265790644,-0.00017453292519943315,0.6010913943868471,nan,nan,nan
3.5029234169996926,1526839.4515875734,-4462991.388744665,4278799.882486218,-0.18434402784537882,-0.23174977260665724,-0.06262136429056922,0.8913655844139322,-0.40073117416965914,-0.049865140488641636,-0.20590140672615104,-1.3684,-0.2128,10.843513300000001,-0.2141955324510041,0.3783437486010708,0.3403828373701941,nan,nan,nan
3.590242749999561,1526839.4374102117,-4462991.406567864,4278799.877670191,-0.29932498236378935,-0.3827228847740645,-0.05937767294229948,0.8941257543254292,-0.3988087307577792,-0.051565026115383626,-0.19705780969506279,-2.3084000000000002,-0.6228,10.813513300000002,-0.05275257664152862,-0.04598942579005058,-0.23993913891792046,nan,nan,nan
3.6635450000003402,1526839.412344139,-4462991.438617844,4278799.872697786,-0.2775172064256414,-0.4988029683722795,0.1021492565542613,0.8922478723402376,-0.41023135609886385,-0.05972433413779467,-0.17898875173079318,-0.2984,0.4772,12.1335133,0.32249321253725227,-0.049261918137539946,-0.44065200289726836,nan,nan,nan
3.7407700419998946,1526839.3909792688,-4462991.477018565,4278799.880561824,-0.19105397320501916,-0.6803402439921178,0.21271391627100153,0.8855451167625525,-0.43508739201113616,-0.07251238241423177,-0.1457764125100546,0.15159999999999998,-0.3928,12.703513300000001,0.7588255255358346,-0.16270831951717138,-0.8366235769434819,nan,nan,nan
3.81485958400026,1526839.3768554127,-4462991.527313398,4278799.896286913,-0.20728790198369465,-0.7255936344572672,0.3011318952437483,0.8843166179518598,-0.45042622293448503,-0.04252278133475492,-0.11529158916182401,-0.3984000000000001,1.4472,10.903513300000002,0.3235840433197487,-1.13572937750401,-0.3424772324725873,nan,nan,nan
3.8918992090002575,1526839.36097196,-4462991.582912071,4278799.919361169,-0.2925992527886586,-0.8409098350034103,0.3355110062808405,0.8820811256489918,-0.46033133421665484,-0.04155281912071139,-0.09111154862029033,-0.6284000000000001,0.7472000000000001,10.9635133,0.27885998123739403,-0.33396875236911494,-0.5290092962794812,nan,nan,nan
3.965425542000048,1526839.3392810407,-4462991.645250259,4278799.944233215,-0.33678115535620834,-1.0057234955496746,0.2983692109557485,0.8927384214414651,-0.44076252552723433,-0.05822165017322623,-0.0731898010716365,-0.02840000000000001,-0.2828,11.073513300000002,-0.5370814440699551,0.21035580809661655,-0.6817256058289851,nan,nan,nan
4.041632292000031,1526839.3135582854,-4462991.722065659,4278799.967022134,-0.3450941372881421,-1.128198770110729,0.288151586742358,0.8770704306330437,-0.4666368768618626,-0.09454431344330883,-0.06370916899513979,0.40159999999999996,-0.1028,10.8735133,0.8700902653504732,0.7143196296099792,-0.571551696796843,nan,nan,nan
4.1223735419998775,1526839.5210776655,-4462991.396056956,4278799.922044428,0.05725956226398149,-0.7912671201210753,0.47109583052998927,0.8701594822000382,-0.4723668741199374,-0.12210198817530371,-0.06916008105766243,-0.5884,2.0072,11.153513300000002,0.5450226921665293,0.28016897817638975,-0.1472185224057217,42.403165,-71.113606,32.5
4.200527375999627,1526839.5259288484,-4462991.463095216,4278799.961956923,0.19728511918137273,-0.8389954002524663,0.38875630927819155,0.8666200268601422,-0.4744086918844742,-0.14378828055347134,-0.056842352534079287,1.2616,0.6772,10.033513300000001,0.1523236104678051,0.3150755632162764,-0.48319440341463016,nan,nan,nan
4.275551916999575,1526839.5406091877,-4462991.525526367,4278799.990884976,0.15441505113518822,-0.8414290223385317,0.3023239017411384,0.8620189800757112,-0.480869801209631,-0.15266135556801902,-0.04880597654713001,-0.9984,0.8972,8.853513300000001,0.25377087323997555,0.11218103767193553,-0.2683007392628283,nan,nan,nan
4.351546709000104,1526839.552384339,-4462991.5896908,4278800.013939139,0.03300148772802461,-0.8205653012632911,0.17981165061025756,0.8528817959734472,-0.4867758917799193,-0.18415878441744524,-0.04156219384975003,-1.8883999999999999,0.7672000000000001,8.0435133,0.31812988940726644,0.6499606134426883,-0.525736803931992,nan,nan,nan
4.425647000999561,1526839.5548395962,-4462991.6507395245,4278800.027316834,-0.004271723224072627,-0.7969438312445648,0.06727171595307624,0.8467069729104332,-0.48722022635618495,-0.2099955002992571,-0.04007048121856215,-1.3184,1.0972,8.3135133,0.12723450247038662,0.6030548897953407,-0.36320301734002,nan,nan,nan
4.502292041999681,1526839.554512426,-4462991.71177722,4278800.032469155,0.06854178199374211,-0.683584261150922,-0.016081647850422875,0.8491650532725787,-0.4781472663467241,-0.22208360870133742,-0.031189345755693536,-0.2184,2.2972,8.053513300000002,-0.17056230115114585,0.1503601150593115,-0.4024729255098924,nan,nan,nan
4.587029041999813,1526839.5595991001,-4462991.762507888,4278800.031275692,0.10255350591036277,-0.6286017389608398,-0.18465049701613712,0.8525930502542011,-0.46488557391866303,-0.23774168092581735,-0.02110420640211026,-0.6084,0.7272000000000001,7.943513300000001,-0.27419122548830915,0.2190824543565882,-0.5148284961070274,nan,nan,nan
4.659104958999706,1526839.5680484194,-4462991.814297992,4278800.016062453,-0.018220406027660313,-0.6329072165230902,-0.3509015152502272,0.8567428506097005,-0.46031707685928336,-0.2309467962657734,-0.027630680994278,-2.7684,-0.0628,7.863513300000001,-0.18256143975860686,-0.08853182630741237,0.18330320469070446,nan,nan,nan
4.735791875999894,1526839.5666512628,-4462991.862829871,4278799.989155018,-0.06707872818126875,-0.5910003776700781,-0.4620115372117241,0.858341785067715,-0.4588156301569493,-0.22618328265564475,-0.039733118859586664,-2.0284,0.7971999999999999,8.033513300000001,-0.12911073141628054,0.030368728984701335,0.31747539093776855,nan,nan,nan
4.8091621260000466,1526839.5617093996,-4462991.906370395,4278799.955117434,-0.07716530798115959,-0.5808582742800331,-0.5718824907826301,0.8606195970757439,-0.45807081485994017,-0.21787866091672436,-0.04509908398862467,-1.6784000000000001,0.5671999999999999,8.5435133,-0.0876591616814152,-0.1398008730847458,0.2214822820780804,nan,nan,nan
4.886403667000195,1526839.5557513535,-4462991.95121931,4278799.9109615525,0.05648704723432399,-0.6070926372046411,-0.7801010066560209,0.8569650024163479,-0.465628325073684,-0.2194415608125415,-0.025429303323596948,0.3716,-0.48279999999999995,9.1235133,0.32467487410224516,-0.18670659673209342,-0.4101087409873676,nan,nan,nan
4.9600137919997,1526839.559908367,-4462991.995896674,4278799.853552099,-0.0366721475976273,-0.5724457980667359,-0.8011368086653332,0.8647334723930494,-0.4460438817683677,-0.22652426405880313,-0.04435803883657053,-2.8384,1.6872,8.423513300000002,-0.6625269840570475,0.37179876390609207,0.22911809755555562,nan,nan,nan
5.037125500999537,1526839.557077514,-4462992.040085793,4278799.791709512,0.003443431989139517,-0.535286138608406,-0.9167423135542188,0.8755901973747937,-0.4285726196825089,-0.2178844593700382,-0.04683672534892875,-1.0184,0.5972,8.573513300000002,-0.5414447671999408,-0.20852321238202254,0.04040437218366873,nan,nan,nan
5.110819333999643,1526839.5573310698,-4462992.079501387,4278799.724205535,0.05651615370573265,-0.4789649564764798,-0.8572925794613475,0.8743874221045002,-0.43916628888344167,-0.20449612458039876,-0.027585183742970403,-1.4084,2.2172,9.7235133,0.36285395148962113,-0.5488624165209168,-0.23775747735292754,nan,nan,nan
5.194057292000252,1526839.6037094365,-4462991.382855801,4278799.924462826,0.12999345841124743,0.3244836241004358,-0.33131854092368607,0.888270548933228,-0.41709608528323044,-0.1911384915121514,-0.021733963248077064,-2.4184,0.8472,8.763513300000001,0.2723149965424153,-0.5739515245183353,-0.04468042885105484,42.403165,-71.113605,32.5
5.26715033399978,1526839.6140485473,-4462991.357047793,4278799.898111199,0.12805749347779866,0.212362974947589,-0.3004279573285724,0.8863101561222037,-0.4262941248767961,-0.18090394038098345,-0.0011794751115210918,-1.7384,0.1472,10.933513300000001,0.3192207201897629,-0.4397793382712712,-0.3064798166502043,nan,nan,nan
5.348586459000217,1526839.62448757,-4462991.339736335,4278799.873620838,0.13025353535896636,0.09074100767389698,-0.35242385949329574,0.8987589289513301,-0.39107878615618996,-0.1975909380901476,0.01573506880372093,-0.9984,-0.4328,10.4735133,-0.8206974475190336,0.13181599175687173,-0.6991788983489284,nan,nan,nan
5.4222294589999365,1526839.6340751855,-4462991.333057132,4278799.847679857,0.1289143374277963,0.031492922581242755,-0.34343841271501746,0.9134963686697086,-0.3504075975743281,-0.20539596060963428,0.0234819060434287,-1.2984,-0.19279999999999997,10.3735133,-1.1119492664455872,0.011824605682261582,-0.4842852341971266,nan,nan,nan
5.499215875999653,1526839.643994875,-4462991.330633817,4278799.821252987,0.17577321196886883,-0.019196701848854636,-0.31986784154674003,0.9272055230935698,-0.3149795101865371,-0.19696919630173843,0.04775942181830872,-0.7684000000000001,-0.7427999999999999,10.573513300000002,-0.8316057553439982,-0.5161374930460232,-0.6806347750464886,nan,nan,nan
5.582503542000268,1526839.6569048609,-4462991.332043754,4278799.797759706,0.18924831651796747,-0.01236985054228562,-0.4176019880407677,0.9331780967875289,-0.289964946349797,-0.1902811056071617,0.09429777818180046,-0.008400000000000019,-1.8628,8.743513300000002,-0.4247258734728201,-0.6328563867731439,-1.2445942895971565,nan,nan,nan
5.657536542000344,1526839.6729697248,-4462991.333093802,4278799.762310413,0.29719444390279304,-0.04444765945777113,-0.5041110350360791,0.92883168457879,-0.2784443155699498,-0.20143662281128752,0.1384332055412846,1.4716,-2.0228,9.503513300000002,-0.0505709150765357,-0.06235188752749742,-1.1082404417850995,nan,nan,nan
5.7318101259998,1526839.6950493774,-4462991.33639598,4278799.724858177,0.2434126198584031,-0.0023349217154532975,-0.5466416658792651,0.9149998504982546,-0.29077535124875153,-0.2267934752767175,0.16367555963853844,-0.3884000000000001,-1.6828,8.693513300000001,0.45448373721932345,0.5659666431904612,-0.8060803150335811,nan,nan,nan
5.808075250999536,1526839.713626872,-4462991.336574184,4278799.683137938,0.1909214133012338,0.07600387887420673,-0.5529295374669103,0.8943903430960117,-0.31714881690781616,-0.24512051486283362,0.19849049312421288,-0.9584000000000001,-0.8228,8.813513300000002,0.9180868197803173,0.40997784129346804,-0.906436747023255,nan,nan,nan
5.883301167000354,1526839.727887182,-4462991.330897299,4278799.641838503,0.18619308202573717,0.15343807952372313,-0.5352295434004672,0.880055707495583,-0.3131532783669788,-0.26258585065453444,0.24183806058029747,-0.8784000000000001,0.19720000000000001,9.2235133,0.21777345741759246,0.1230893454969001,-1.289318351679511,nan,nan,nan
5.9592896260001,1526839.7420609132,-4462991.319217004,4278799.601094778,0.20671023047505782,0.26951050776190144,-0.5229208046358697,0.8719152333472117,-0.29368050983734345,-0.2777377459905051,0.2763644857929682,-0.8184,0.7572000000000001,8.933513300000001,-0.24146630201341548,-0.0012653637076958891,-1.109331272567596,nan,nan,nan
6.035405126000114,1526839.7578031893,-4462991.298692094,4278799.56127109,0.2719399242986732,0.3101429410866075,-0.45412111348303463,0.8714238745004174,-0.25620685412429195,-0.30132797156328284,0.29013778271834,-0.6284000000000001,0.49720000000000003,10.2935133,-0.9254172026386933,0.16563174601426187,-0.7744462223411839,nan,nan,nan
6.111438291999548,1526839.77848013,-4462991.275110389,4278799.52674201,0.22020302728287802,0.3655231391417059,-0.3588179453172199,0.8672317495713496,-0.23384970391175028,-0.30880056780349563,0.3128348100783925,-2.0684,-1.0528,9.833513300000002,-0.36145768808802564,-0.11907508821731314,-0.7799003762536661,nan,nan,nan
6.186216000999593,1526839.7949610145,-4462991.24775316,4278799.499886625,0.2744400883885816,0.4085684528379409,-0.3005594777204245,0.859376523708559,-0.22322374250680682,-0.2976595175235028,0.3507733790701129,-0.6584,-0.6828000000000001,10.1235133,0.20904681115762083,-0.5194099853935125,-0.9631599477130708,nan,nan,nan
6.268342209000366,1526839.5820530984,-4462991.299926507,4278799.859965022,-0.20678219093691755,0.4684820249137423,0.11477432332729409,0.8442474983329317,-0.21323188790788314,-0.2747991701195526,0.40775450971899,-0.6584,-1.9828000000000001,9.393513300000002,0.27995081201989047,-0.36996616819149797,-1.2271409970772131,42.403165,-71.113605,32.5
6.345813666999675,1526839.5647709752,-4462991.260772439,4278799.869557453,-0.16987993099421453,0.4164014533882962,0.12900034495787316,0.8240073303875952,-0.21508208907386994,-0.26997395322264706,0.44929464671327496,1.3816,-1.1428,10.313513300000002,0.46102872191430216,-0.15834499638718555,-1.0002481943179502,nan,nan,nan
6.632610251000187,1526839.5177578367,-4462991.145536113,4278799.905257439,-0.4268442620251266,0.235402116830901,0.24224313230561112,0.7519352425152916,-0.14372469182387032,-0.27315575643131984,0.5825139803547883,0.8416,-1.7828,10.183513300000001,-0.06366088446649318,-0.2805180440267886,-1.1769627810823762,nan,nan,nan
6.7128296669998235,1526839.4792905252,-4462991.124321615,4278799.927088451,-0.49810726950681505,0.25252254928783197,0.2818240263512998,0.7298444694429874,-0.15875674289144676,-0.2729283331842972,0.6063278589277973,1.5016,-1.1028,9.643513300000002,0.4686645373917774,0.24853488548399252,-0.5911866508817792,nan,nan,nan
6.788217250999878,1526839.4417132295,-4462991.105271272,4278799.948349303,-0.6545409541361944,0.34925072255826356,0.369665516721728,0.7104418512145754,-0.15703075174937434,-0.28539203929600826,0.6238309895404694,-0.11840000000000003,-1.7028,9.413513300000002,-0.02548180707911721,0.28016897817638975,-0.7155413600863753,nan,nan,nan
6.86329141799979,1526839.392401914,-4462991.078959683,4278799.9761988865,-0.7798743723860095,0.4585185226332078,0.47540454969036017,0.6952407606726856,-0.1411305852402946,-0.2838838458660947,0.6450832544889187,-0.47840000000000005,-1.3328,9.583513300000002,-0.0505709150765357,-0.2652464130718382,-0.7668104068637087,nan,nan,nan
6.9381105009997555,1526839.334487924,-4462991.044909792,4278800.011502745,-0.9392814516635872,0.5367750633069177,0.4883565623677794,0.6838796641170753,-0.12554979555850238,-0.2739736803023813,0.6644428319281088,0.8216,-1.7028,8.7235133,0.07160213256306737,-0.4430518306187605,-0.6413648668766162,nan,nan,nan
7.0144243340000685,1526839.262677704,-4462991.003872108,4278800.048838723,-1.2661563400648568,0.5368186803864424,0.5187395728781368,0.6683685162710461,-0.11893115188392117,-0.2914697350000268,0.6739319711253949,2.0216000000000003,-3.8228,9.003513300000002,-0.30364365661571346,0.27798731661139686,-0.5442809272344317,nan,nan,nan
7.090699751000102,1526839.1660983055,-4462990.962924854,4278800.0884069465,-1.5331364003778212,0.673246461728238,0.6438417853985166,0.6298281542258486,-0.13712940170936996,-0.29927331450065414,0.7035250579160812,-0.23840000000000003,-3.3728000000000002,9.143513300000002,0.527569399646586,0.6608689212676528,-1.0853329953526738,nan,nan,nan
7.166385542999706,1526839.0495173994,-4462990.91173066,4278800.137365186,-1.5034898024576384,0.4983528844769023,0.7874156448385947,0.597860007370725,-0.14945595871849887,-0.3135274372904462,0.7224450668480188,2.0516,0.7871999999999999,12.593513300000001,0.204683488027635,0.6477789518776954,-0.8595310233759075,nan,nan,nan
7.241109333999702,1526838.9372271963,-4462990.874510489,4278800.1961744055,-1.4555525572577237,0.5723166895513487,0.9362003017127041,0.5646391612628202,-0.1862546460365107,-0.3122348858120264,0.7409461525893264,-1.2884,1.0172,10.703513300000001,0.9028151888253668,0.8964883702868873,-0.6250024051391694,nan,nan,nan
7.323371292999582,1526839.578785394,-4462991.305847804,4278799.870760385,-0.3353275492149972,-0.05080811908996452,0.37101822235986803,0.5341239709434877,-0.1534009656452961,-0.381644271854744,0.7385982519068501,-1.3484,0.11720000000000001,10.453513300000001,-0.3047344873982099,0.13727014566935403,-0.8191702844235386,42.403165,-71.113605,32.5
7.399750208999649,1526839.5510096124,-4462991.310056332,4278799.9014924895,-0.5667567895766961,0.03944785967598785,0.4386021918423323,0.49761323458135376,-0.15016584224817714,-0.3865644503783718,0.7618393628920649,-0.6684,-2.5828,9.023513300000001,0.21995511898258538,0.25617070096146777,-0.9991573635354538,nan,nan,nan
7.471859792999567,1526839.510148125,-4462991.307212258,4278799.933114409,-0.5912691157479772,0.08611556772745166,0.4214482652559519,0.46115726491652054,-0.16028858069478896,-0.37925724181440545,0.7860060387819139,-0.8484,0.2272,9.073513300000002,0.7053748171935084,0.4034328565984893,-0.9653416092780637,nan,nan,nan
7.580471917999603,1526839.4645704408,-4462991.300574082,4278799.965601538,-0.6401457241533679,0.12248067445296434,0.4052812861162224,0.43011942316607066,-0.14697479471632374,-0.39252214638941296,0.7995761731592377,-0.8984000000000001,0.4072,9.143513300000002,-0.1672898088036565,0.13617931488685756,-0.9817040710155105,nan,nan,nan
7.65949991799971,1526839.3938119863,-4462991.287035691,4278800.010399272,-0.8181045484310163,0.06092566275097183,0.46738084680078784,0.3981344341510352,-0.12011505117784983,-0.4081946331885657,0.8126736668654716,-0.2984,-0.6228,10.313513300000002,-0.25782876375086233,-0.07435102613495845,-0.7973536687736095,nan,nan,nan
7.737257001000216,1526839.330169247,-4462991.282296105,4278800.046758191,-1.0987608416075234,0.09598915822908488,0.4433512792381907,0.37324030700797356,-0.08732572379477994,-0.4072125251068527,0.8290017196249679,1.0616,-2.2828,8.7135133,-0.06693337681398254,-0.4845034003536259,-1.028609794662858,nan,nan,nan
7.812050000999989,1526839.2480075746,-4462991.275118356,4278800.079910521,-1.1924862782923233,0.09408340250711839,0.49627337067259264,0.34771602783948724,-0.0912119635029014,-0.41159793455849375,0.8374730339070017,-0.2884,-1.0328,10.0435133,0.09341874821299649,0.3881612256435389,-0.6184574204441907,nan,nan,nan
7.883815709000373,1526839.1624232314,-4462991.268366021,4278800.115527896,-1.2322220982882044,0.18350569880738432,0.5881203672676546,0.31965003213484217,-0.07959597226799017,-0.4073900612238789,0.8517756023317726,-1.9484,-1.4128,9.5435133,0.22104594976508182,-0.026354471705114377,-0.9162542240657232,nan,nan,nan
7.960541292999551,1526839.067875086,-4462991.254285667,4278800.16065425,-1.2539409518095264,0.20203744903975474,0.6514530533185371,0.3001329307558786,-0.06845484421423846,-0.41089276343038833,0.8581382730637134,-1.3884,-0.46280000000000004,10.0535133,-0.06257005368399672,-0.024172810140121466,-0.611912435749212,nan,nan,nan
8.034671250999963,1526838.9749181976,-4462991.239308269,4278800.2089476315,-1.2911465950124708,0.18537141446388639,0.7603469369617445,0.27253847738108977,-0.06848565044280451,-0.41274850421451154,0.866412815495967,-1.1884000000000001,-0.9028,10.7935133,0.09996373290797522,0.30634891695630473,-0.7089963753913965,nan,nan,nan
8.111077792999822,1526838.8762200996,-4462991.225138068,4278800.267070231,-1.2460541430428502,0.2100490156493321,0.8760059993098646,0.24211582930803768,-0.07728871597547367,-0.4020974035718833,0.8796158583034049,-2.5484,-0.6228,10.503513300000002,0.501389460866671,0.4285219645959078,-0.6697264672215241,nan,nan,nan
8.185598334000133,1526838.7837983437,-4462991.209558409,4278800.332044946,-1.2557777521385192,0.23948006026158464,1.0180614326795172,0.22418235357630317,-0.06643224669332491,-0.4075546650645939,0.8827390466525741,-2.3984,-1.0228000000000002,10.603513300000001,-0.12911073141628054,-0.03399028718258956,-0.5748241891443324,nan,nan,nan
8.26207870899998,1526838.6879606822,-4462991.191281919,4278800.409740722,-1.334510645907942,0.33787587155185356,1.1239840990154097,0.21457127796008754,-0.045312012129545075,-0.40488173829103613,0.8876805544713245,-1.6684,-1.7728000000000002,9.523513300000001,0.007243116395776468,-0.4103269071438668,-0.47228609558966556,nan,nan,nan
8.342898500999581,1526839.506871375,-4462991.378096049,4278799.922313445,-0.05060813124817387,-0.08235125333482751,0.33332550640126857,0.20867477559828596,0.02283539878373012,-0.44448891009529456,0.8708403940736974,0.5716,-0.5728,8.833513300000002,-0.13892820845874865,-0.3426953986290866,-0.4581052954172117,42.403165,-71.113606,32.5
8.420857043000069,1526839.5025926284,-4462991.385058569,4278799.950494992,-0.1099873241324246,-0.039249365005652126,0.28773045019240207,0.20789219639289852,-0.0012369325173046924,-0.4361758385540312,0.8755169576286425,0.05159999999999999,-0.9128000000000001,8.8835133,0.3388556742746991,0.46561021120078727,0.20948314347061942,nan,nan,nan
8.495746208999662,1526839.4943910888,-4462991.387985317,4278799.971950488,-0.010443781140615754,0.034940014045902246,0.36889238746320197,0.2094330066315855,-0.023986168905605152,-0.4249837749731932,0.8803131664361056,-2.6484,-1.4128,9.903513300000002,0.4457570909593518,0.4536110725933263,0.2760238212029032,nan,nan,nan
8.582049208999706,1526839.493594364,-4462991.385319849,4278800.000092181,-0.03788295261901428,-0.0826564248207195,0.46172678478474327,0.20535142017048466,-0.02400845494182901,-0.41505104254516945,0.8859949328095401,-0.6084,-0.3828,11.6235133,0.29522244297484085,-0.012173671532660447,-0.11885692206081384,nan,nan,nan
8.664523501000076,1526839.4900884405,-4462991.392969388,4278800.042823245,-0.03495602923612831,-0.08582062526423345,0.4947283581812705,0.20097824427459224,-0.023799936039985762,-0.4010691539143708,0.8934119109951177,-1.2884,-0.2128,9.993513300000002,0.33558318192720976,-0.0307177948351002,-0.11122110658333866,nan,nan,nan
8.738690459000281,1526839.487495858,-4462991.399334443,4278800.079515743,-0.060020057999296855,-0.11785125281605374,0.6098337242214722,0.19693386060835227,-0.03259704536075549,-0.39626232989109156,0.8961755707704072,-1.0284,-0.6628000000000001,11.0535133,0.19595684176766334,0.22780910061655987,-0.01413716694115407,nan,nan,nan
8.815001584000129,1526839.4829027355,-4462991.408353182,4278800.126184158,0.01263410364954548,0.01775721537667968,0.6601547439868872,0.18916690644391543,-0.01997968139914848,-0.3649024847414234,0.9114070830446214,-2.9284,-0.7327999999999999,8.9635133,0.8340928495280902,-0.3896011222764342,-0.3642938481225164,nan,nan,nan
8.888726834000408,1526839.483838392,-4462991.407038118,4278800.175073898,0.10208329907651875,0.0322773780129233,0.5956329778032907,0.1848542132759594,-0.011054559769455954,-0.3402498459429078,0.9219201480795394,-2.0984,1.9072,9.0435133,0.6671957398061323,-0.30887964437169646,-0.23448498500543818,nan,nan,nan
8.96542166800009,1526839.4916347826,-4462991.404573003,4278800.220564077,0.1682450054472091,0.06859258502948457,0.5053143197569614,0.1755012666573446,-0.0043986521952978355,-0.3257571344540241,0.9290114354353114,-1.6584,2.1972,8.533513300000001,0.3835797363570538,-0.14961835012721392,-0.3152064629101759,nan,nan,nan
9.039872334000393,1526839.5041463156,-4462991.399472118,4278800.258141755,0.2271082013449818,0.1578094283417057,0.4160624407577316,0.17071810868033746,0.0026441850740572767,-0.3250417926501931,0.930159217145857,-1.7784,1.8672,8.023513300000001,-0.004756022211684548,-0.1376192115197529,-0.1864884305755941,nan,nan,nan
9.11704916799954,1526839.5216930169,-4462991.387279538,4278800.290287329,0.15646484012899523,0.09130169169643426,0.33852386804948953,0.16462439067181978,-0.001751711490518095,-0.3324313276984067,0.9286469482123993,0.5216,2.6872,9.243513300000002,-0.17165313193364232,0.1896300232291839,-0.10249446032336701,nan,nan,nan
9.190332875999957,1526839.5332100287,-4462991.380559034,4278800.315205281,0.2735101997002233,0.11208191572890425,0.38646604511117105,0.15970419610211298,-0.047778834471738904,-0.35015556727032693,0.9217390259668067,-2.5384,1.4871999999999999,10.1335133,-0.30364365661571346,1.2859149596381223,0.3218387140677544,nan,nan,nan
9.267532543000016,1526839.5542504732,-4462991.371936857,4278800.344935131,0.281437638455869,0.053179901466159474,0.4801619541600061,0.15734522098995538,-0.003101342686307025,-0.38417493690356824,0.9097485814866906,-1.8883999999999999,1.2271999999999998,10.9635133,-1.1075859433156015,-0.8935649437897969,-0.45592363385221873,nan,nan,nan
9.34789900099986,1526839.5246851516,-4462991.393395398,4278799.934042854,0.25167374958307076,-0.170215211318268,0.08403925939373441,0.15494937538179585,0.031476738906350894,-0.41944973232848043,0.893902583385304,-0.49840000000000007,-0.9628000000000001,10.3035133,-0.5894413216297849,-0.680852941202988,-0.30211649352021847,42.403165,-71.113606,32.5
9.4255065010002,1526839.5459977868,-4462991.407809832,4278799.941159599,0.12278472122275857,-0.2585245809748026,-0.0014942280539988473,0.15913388703099135,0.05676646882012847,-0.40327013523028193,0.8993481931956013,1.2016,0.6872,9.613513300000001,0.30613075079980545,-0.630674725208151,-0.1941242460530693,nan,nan,nan
9.499874875999922,1526839.5551001148,-4462991.426974884,4278799.941048829,0.17665847714233887,-0.17636661937318476,-0.06838189928854332,0.171118699614579,0.051472827760529576,-0.4170375418323125,0.8911501713537141,-1.1384,0.0772,8.583513300000002,-0.3821834729554583,0.044549529157155265,0.40474185353748504,nan,nan,nan
9.586366460000136,1526839.568625456,-4462991.44047788,4278799.935813368,0.21201426383142807,0.009146587157351782,-0.15038602529629413,0.1834375250064369,0.07921034807813797,-0.4257321343296286,0.8825126319394717,-1.3684,-0.8528,7.453513300000001,-0.4040000886053874,-0.7528477728477541,0.034950218271186446,nan,nan,nan
9.666442834999543,1526839.5877668457,-4462991.439652094,4278799.922235992,0.10973990010286888,0.04035604396496245,-0.14671921257400483,0.19337105893519196,0.09410781682079183,-0.41342531471276217,0.8847772951940515,1.3215999999999999,-1.1728,9.2135133,0.21886428820008894,-0.43105269201129953,0.022951079663725435,nan,nan,nan
9.740957375999642,1526839.595945797,-4462991.436644345,4278799.91130096,0.12026264647331128,-0.011135133321646562,-0.08545041562750555,0.19974557773452398,0.08150995801254535,-0.3915590257871371,0.8945050926639064,0.9616,-0.6528,10.813513300000002,0.7086473095409976,0.13945180723434691,0.18548486625569738,nan,nan,nan
9.819958459999725,1526839.6054416904,-4462991.437523571,4278799.904553827,0.2432121168622735,0.12187286676246473,0.036299283008622285,0.19162515217336795,0.06837947636147984,-0.40284604727884954,0.8923671391392739,-1.4484000000000001,-1.6628,10.173513300000002,-0.22728550184096158,0.4307036261609007,-0.019591320853636348,nan,nan,nan
9.893520460000218,1526839.6233304485,-4462991.428559568,4278799.9072237145,0.30377268880796804,0.08076078052230334,0.13151702944489918,0.19438274031871197,0.05457192128953098,-0.4148188484298548,0.8872218320223125,-0.2184,-0.5227999999999999,11.273513300000001,-0.2698279023583233,0.35761796373363813,0.2672971749429316,nan,nan,nan
9.970578876000218,1526839.6467287678,-4462991.422338909,4278799.917353912,0.4422645000348714,0.05541278765535901,0.10739027393571449,0.2074270485977346,0.02994431015569913,-0.39002559533780484,0.8966367120174509,-1.4084,0.6372,10.2935133,0.8155487262256503,0.3150755632162764,0.48328166987722987,nan,nan,nan
10.044292417999714,1526839.6792793612,-4462991.418260536,4278799.925257819,0.47369983809469834,0.005266474410973443,-0.01935784274766078,0.22082077924927837,0.042103229329754945,-0.39031199223924296,0.892816918972038,-0.0784,2.0772,9.163513300000002,-0.10511245420135851,-0.4397793382712712,0.21930062051308752,nan,nan,nan
10.12087833500027,1526839.715672674,-4462991.417855925,4278799.923770598,0.3731135439134661,0.0490545899983032,-0.13104283142718376,0.22701944960330558,0.0507899058123849,-0.3873594124782298,0.8920959819944508,1.2516,0.43720000000000003,8.083513300000002,0.01815142422074103,-0.2826997055917815,0.05676683392111557,nan,nan,nan
10.194956375999936,1526839.7432956996,-4462991.414224226,4278799.914068995,0.32742426872628944,0.07205723162954608,-0.23418278865287717,0.2346201232090365,0.03811221800642042,-0.37779555556180655,0.8948582990499082,0.9216,0.8071999999999999,8.453513300000001,0.34758232053467075,0.17108589992674414,0.2858412982453713,nan,nan,nan
10.27141654299976,1526839.7683342837,-4462991.408713911,4278799.896160715,0.3156395660648956,0.05718351486655032,-0.2508852571353753,0.23686142527548362,0.02451429074089128,-0.3744644994707311,0.8961428758623334,0.5216,0.6772,9.7235133,0.17632188768272714,0.2768964858289004,0.17566738921322927,nan,nan,nan
10.351928043000044,1526839.5241870244,-4462991.129681362,4278800.14151538,-0.06313673788723095,0.44423152937583854,0.2677527750868025,0.23442062584575657,0.002268353596336892,-0.35643512524441373,0.9044312172845352,-0.2884,0.027200000000000002,10.183513300000001,-0.05602506898901798,0.3248930402587445,0.03822271061867581,42.403168,-71.113605,32.5
10.739482668000164,1526839.4999947392,-4462990.95946389,4278800.24411098,0.1182293028884207,0.7709409386195629,0.7763019429334093,0.25803009472873356,-0.03168503775009349,-0.3317869541508558,0.9068263043213374,-1.2484,-0.12279999999999999,10.263513300000001,0.16268650290152145,0.08621926504851989,0.17152223223974275,nan,nan,nan
10.816217876000337,1526839.5103466655,-4462990.89196181,4278800.312082458,0.03567176809638212,0.8315406251136449,0.8749125572716323,0.26961931802206335,-0.004584125853810396,-0.31835888227640835,0.9088080280080776,-0.22840000000000002,0.13720000000000002,9.983513300000002,0.1250528409053937,-0.7299403264153285,0.03276855670619353,nan,nan,nan
10.888283751000017,1526839.5129071523,-4462990.832274587,4278800.37488288,-0.012720603208512565,0.9441638994470178,1.0641173961517036,0.2829744114184366,-0.012631085618299667,-0.3072714323061088,0.9084878676150749,-0.5184000000000001,-1.0628,10.7135133,0.3366740127097062,0.002007128639793479,0.41346849979745665,nan,nan,nan
10.966113960000257,1526839.5119225304,-4462990.7591928,4278800.457249512,0.029960844773573747,1.0798488582661445,1.2716527340681782,0.2895945472030752,-0.04034769116393787,-0.29281479578114716,0.910366166976987,-1.6784000000000001,-0.2928,10.853513300000001,0.5548401692089974,0.49179014998070225,0.36656277615010907,nan,nan,nan
11.039346292999653,1526839.5141281653,-4462990.679697297,4278800.5508650895,0.08533157381060308,1.090021802563852,1.4005637903412125,0.2904984514502144,-0.057162082940837855,-0.2844518672113421,0.9118279891380908,-1.2184,1.8772,10.933513300000001,0.34976398209966364,0.3412555019961913,0.15385077356330015,nan,nan,nan
11.116115542999978,1526839.5207080902,-4462990.595645624,4278800.658862681,0.24013148164221892,1.3013938698466694,1.4925727999043477,0.29354026491637125,-0.06720394864145633,-0.28274256406572396,0.9106999424520154,-3.6484,1.4072,9.023513300000001,0.1032362252554646,0.20381082340163784,0.1571232659107895,nan,nan,nan
11.19008554300035,1526839.5384177668,-4462990.499667936,4278800.7689398,0.25540954537629135,1.4332477747665435,1.4971494873012403,0.2912252483367778,-0.04596673369825582,-0.2805540748314016,0.9134354524412401,-1.4984,1.6672,8.4635133,-0.08984082324640812,-0.5292274624359806,-0.23775747735292754,nan,nan,nan
11.267216543000359,1526839.5580621026,-4462990.389432429,4278800.884090184,0.22933223034959369,1.5211146870982684,1.4369635024126817,0.2921476693294575,-0.03640688608765902,-0.27235438071326906,0.9160498729948052,-0.2084,2.1271999999999998,8.123513300000003,0.14032447186034408,-0.29906216732922836,-0.05777039824101231,nan,nan,nan
11.340736625999853,1526839.5749439741,-4462990.277458361,4278800.989869617,0.24446479518475808,1.5808539641152919,1.4078155451464165,0.29278966668715406,-0.04266637126759407,-0.26784458317423315,0.9169040689543497,-0.3984000000000001,2.5572,8.653513300000002,0.1675952414227555,0.11436269923692843,0.060039326268604934,nan,nan,nan
11.424434210000072,1526839.5384133845,-4462991.417848123,4278799.971056973,0.23010118209208563,-0.286385541128759,-0.17760366289996576,0.26148182300322814,-0.05458538332256515,-0.33831336060721867,0.9023257520196503,-1.4184,1.6972,9.073513300000002,0.2646791810649401,-0.1670716426471572,-0.16030849179567916,42.403165,-71.113606,32.6
11.610547960000076,1526839.5803853455,-4462991.47008672,4278799.938660903,-0.10335401392388416,-0.3827363694186192,0.10364747830786669,0.1941548038795734,-0.03832243555303007,-0.3643751143087515,0.9099813622778176,0.5216,0.19720000000000001,10.993513300000002,-0.2360121481009332,0.15908676131928312,-0.7646287452987158,nan,nan,nan
11.68696379300036,1526839.5714369162,-4462991.503224178,4278799.947634741,-0.2995149431549401,-0.390479178325172,0.13168450342928162,0.14153841014356397,-0.0040571252993669175,-0.37289715377304367,0.9170049789685119,0.7216,0.1072,9.783513300000001,-0.22728550184096158,-0.24561145898690204,-1.4343988457515398,nan,nan,nan
11.76067333500032,1526839.5492413116,-4462991.532160702,4278799.957393243,-0.40961734234982755,-0.32660374103012946,0.14762060188134002,0.08991392384811014,0.021958868612438932,-0.3877173843602588,0.9171196894675622,-0.05840000000000001,-0.3528,9.113513300000001,-0.4596324585127067,-0.0678060414399797,-1.5423910932186888,nan,nan,nan
11.837264085000243,1526839.5178943544,-4462991.557154843,4278799.968690266,-0.5330826353196431,-0.2594327197956303,0.10298709037100473,0.035977420028539875,0.04949508534796523,-0.36895485864593675,0.9274309540945811,0.1916,-0.12279999999999999,8.513513300000001,0.4588470603493093,-0.1518000116922068,-1.6078409401684763,nan,nan,nan
11.911539167999763,1526839.4782802507,-4462991.576433645,4278799.976343378,-0.5720272151124958,-0.28896654502962826,-0.0023275561586215687,-0.01314854841241548,0.07716721395244823,-0.33741968784429616,0.9380939673493599,-0.7184,1.7371999999999999,8.903513300000002,0.8013679260531964,-0.21943152020698709,-1.55439023182615,nan,nan,nan
11.98800812599984,1526839.4345714366,-4462991.598513687,4278799.976165529,-0.5791903813248429,-0.38651018807559157,-0.044545808409431564,-0.06670357758692186,0.10769010740261181,-0.32263924349896783,0.9380071388938754,-1.0684,2.2772,10.073513300000002,0.2646791810649401,-0.27179139776681693,-1.6154767556459515,nan,nan,nan
12.06250641800034,1526839.3913858433,-4462991.627332659,4278799.972844105,-0.4852568058547493,-0.4526257437297432,0.1500029132649106,-0.132346588168408,0.1129951477722116,-0.33027776756335503,0.9277031173765804,-1.6584,-0.0928,12.453513300000001,-0.46181412007769956,0.3914337179910283,-1.6951074027681927,nan,nan,nan
12.138654375999977,1526839.3544522806,-4462991.661782627,4278799.984261033,-0.5469821499311147,-0.49011563532620495,0.30169713897871625,-0.17846895855223113,0.16597496270303327,-0.34932191901488163,0.9047515349760454,-0.1384,-0.022799999999999987,11.413513300000002,-0.6167120911921963,-1.0266462992543643,-1.6089317709509727,nan,nan,nan
12.21308454300015,1526839.3137107482,-4462991.698288502,4278800.006732706,-0.4591695225168706,-0.4691588590815952,0.21672687073412966,-0.2162948982432487,0.17252107950697862,-0.33109610490720637,0.9021243617105721,-2.1384,-0.1328,8.993513300000002,0.2810416428023869,0.27144233191641814,-1.0744246875277093,nan,nan,nan
12.289468500999646,1526839.2786616685,-4462991.734100082,4278800.023275784,-0.44793361755129046,-0.48727351684381887,0.10288890928780414,-0.24026049112104741,0.18954195394310674,-0.3348580592068438,0.8911895560668728,-1.7384,0.9372,8.8735133,-0.19565140914856435,-0.2652464130718382,-0.7591745913862334,nan,nan,nan
12.363679668000259,1526839.2453895514,-4462991.770294333,4278800.030918282,-0.43684264734255657,-0.46835879412360965,0.025026461716490256,-0.25575901772322784,0.18117935956129086,-0.3411003515366041,0.8862346840767161,-1.2384,0.1572,8.893513300000002,-0.3276419338306355,0.2747148242639075,-0.2966623396077362,nan,nan,nan
12.446951085000364,1526839.6246827382,-4462992.205282621,4278799.318852404,0.24054817557132613,-1.1541639999453002,-1.1452963503093632,-0.2416952698435357,0.20702382299065233,-0.37427339791639974,0.8710016977127253,-1.8784,0.1072,8.263513300000001,0.024696408915719763,0.3019855938263189,-0.2704824008278212,42.403156,-71.113608,32.7
12.636018584999874,1526839.6693646219,-4462992.419668873,4278799.106113321,0.24350806523081076,-1.3462245808901818,-1.7111158798958936,-0.24845745276425682,0.21307744072369866,-0.39103770689131945,0.8602071906037849,-2.0484,1.4272,8.613513300000001,-0.20001473227855016,-0.09725847256738401,-0.07849618310844497,nan,nan,nan
12.7114336679997,1526839.6901664098,-4462992.5346707245,4278798.959940463,0.12492255458496976,-1.4381055114424712,-1.5738895413170235,-0.2534629183995079,0.22751019999889066,-0.39440053669037284,0.8534892354962405,1.7915999999999999,-0.7028000000000001,11.2935133,-0.07020586916147191,-0.2979713365467319,-0.25521076987287084,nan,nan,nan
12.787071918000038,1526839.6995706735,-4462992.642932386,4278798.841456878,0.12718282148362053,-1.4657997684169293,-1.6324163467060644,-0.28145160427433047,0.23556154933038276,-0.36920056435897103,0.8538071765698825,-0.2184,-0.6628000000000001,9.5535133,0.4599378911318057,0.2823506397413827,-0.8693485004183755,nan,nan,nan
12.963245418000042,1526839.7219643889,-4462992.901023081,4278798.5540291695,0.05035015491370348,-1.8148362951198564,-1.9585006252384856,-0.3434995863781288,0.29439892321872174,-0.381447602695082,0.8061234614627144,-1.1984000000000001,1.4072,10.0435133,-0.29709867192073475,-0.4779584156586471,-0.9697049324080494,nan,nan,nan
13.03715854300026,1526839.7257077214,-4462993.0359489,4278798.408422482,0.09500127053724103,-1.8362560183236334,-2.203728215130356,-0.3683478799784888,0.3059229360764439,-0.3612066140928447,0.8001629702692106,-1.6484,-0.2828,8.233513300000002,0.2875866274973657,0.14490596114682922,-0.8726209927658649,nan,nan,nan
13.109665877000225,1526839.7325662433,-4462993.168515567,4278798.249326527,0.12279821913041525,-2.086706729156761,-2.341745579800398,-0.37958760121687396,0.30332462708392444,-0.33726003813085076,0.8063269131335854,-1.7284,0.9572,11.493513300000002,0.47084619895677027,0.46670104198328377,-0.36320301734002,nan,nan,nan
13.186131209999985,1526839.7419365917,-4462993.327745636,4278798.07063524,0.3338291833073842,-2.454089280233882,-2.6176742203299135,-0.38429384171617076,0.29198609564005906,-0.33653600446704074,0.8085826373513115,-5.2184,0.5372,11.983513300000002,-0.11492993124382661,0.30634891695630473,0.017496925751243154,nan,nan,nan
13.259855502000391,1526839.7667354404,-4462993.510050216,4278797.876178582,0.37053689383700283,-2.5433894837551483,-2.6555805464592765,-0.39943979850260003,0.29018374832601335,-0.35095511551066616,0.7956580591141549,-0.47840000000000005,-0.4228,10.4735133,-0.5687155367623523,-0.07435102613495845,-0.33375058621261566,nan,nan,nan
13.33731733500008,1526839.7953828056,-4462993.706687605,4278797.670867352,0.3755044089425643,-2.5882141761309603,-2.7974356516446504,-0.39840598473247585,0.2983283768420014,-0.3255005417994601,0.8039416948667126,-0.8984000000000001,-0.3528,9.103513300000001,0.6911940170210544,0.14817845349431857,-0.15812683023068627,nan,nan,nan
13.411276417999943,1526839.8230413808,-4462993.89732802,4278797.464816284,0.34520608558950433,-2.632304247890199,-2.963346218827687,-0.40858552963080025,0.33206783142464624,-0.31611490742003334,0.7892149176066151,-1.0784,0.6472,8.753513300000002,0.35739979757713886,-0.6644904794655412,-0.7559020990387442,nan,nan,nan
13.494440710000163,1526839.9119615057,-4462992.291156542,4278799.417556834,0.4919062200696805,-0.2248108754908853,0.31354258739603713,-0.43441809845179485,0.25955237690721994,-0.1984454649776762,0.8393645676140222,-1.1584,1.2872,8.003513300000002,0.057421332390613436,-0.23033982803195166,-1.083151333787681,42.403156,-71.113605,32.9
13.580659709999964,1526839.952344649,-4462992.309612437,4278799.4432971785,0.5073983605786245,-0.11106552393267088,0.21070071874519103,-0.4707847760284609,0.268770557960248,-0.20322360149935628,0.8153675552681388,-1.3984,0.2872,7.933513300000001,-0.34618605713307526,-0.21506819707700126,-1.0122473329254114,nan,nan,nan
13.652364376999685,1526839.9940507438,-4462992.318741574,4278799.460615926,0.5635248182470735,-0.19177363311028783,0.22549394509217735,-0.4958688666527189,0.2736011974572806,-0.20473596292557755,0.7983355421601672,-2.1284,0.5272,10.573513300000002,-0.22292217871097575,-0.10053096491487339,-0.7068147138264036,nan,nan,nan
13.72933550200014,1526840.0374197073,-4462992.3335005045,4278799.477969978,0.6786617727158412,-0.1983065900224008,0.4865971640910396,-0.5215412612587134,0.27819749407071515,-0.21347964861263563,0.7778350128931019,0.3116,-1.0828,12.7135133,-0.4138175656478555,-0.21724985864199417,-0.7591745913862334,nan,nan,nan
13.803156252000008,1526840.0874714656,-4462992.348125747,4278799.513856843,0.7403524548764082,-0.16848179464989638,0.5912006419137561,-0.5417971090425677,0.29378656479252896,-0.20676120360064823,0.7598652197744505,-0.1584,-0.9428000000000001,10.733513300000002,0.1054178868204575,-0.2521564436818807,-0.822442776771028,nan,nan,nan
13.879616917999556,1526840.1443546268,-4462992.361070632,4278799.559280291,0.8345429498468685,-0.024727466585003355,0.8227461679471996,-0.5591289480226259,0.30505073941145633,-0.1948800872499829,0.7458824424919898,2.1016,-1.7028,11.083513300000002,0.18613936472519524,-0.06889687222247616,-0.6915430828714533,nan,nan,nan
13.954019251999853,1526840.206059828,-4462992.362898954,4278799.620113251,0.7950749488225186,0.03985195139087494,0.870836830383376,-0.5815114840464244,0.3287044868191715,-0.15315447392965076,0.7282454681899119,0.2716,0.4272,9.563513300000002,0.922450142910303,0.12636183784438945,-1.1878710889073407,nan,nan,nan
14.030517543000315,1526840.2672263025,-4462992.359833076,4278799.687108217,0.8419293752829576,0.1561293910055665,0.7959060263923061,-0.6027636443771572,0.3257894944280796,-0.16199106253121107,0.7101380785130561,-0.5984,-0.4228,8.273513300000001,-0.46508661242518895,-0.14852751934471745,-0.5890049893167864,nan,nan,nan
14.104039752000062,1526840.3291268446,-4462992.348354092,4278799.745625019,0.8402358608027137,0.21164639607476327,0.6905667554574502,-0.6151041573858836,0.32129505702631206,-0.16316521264702855,0.7012798840945409,-1.3084,-0.042800000000000005,8.2235133,-0.24473879436090487,0.04345869837465881,-0.35338554029755187,nan,nan,nan
14.181236710000121,1526840.3939928077,-4462992.3320150515,4278799.798936571,0.816943672136411,0.15667431024004724,0.6373757928070752,-0.6348984491481181,0.29249480077677403,-0.15962893610030424,0.6970432942824258,-1.9484,0.4472,9.613513300000001,-0.5774421830223239,0.6281439977927592,-0.3348414169951121,nan,nan,nan
14.254989334999664,1526840.454259968,-4462992.320456953,4278799.845956739,1.011143940820375,0.16402419692019427,0.6014483091243661,-0.6691063267298454,0.263872650639806,-0.17016783534846258,0.6735806233436178,-1.7184,-2.9928,9.7935133,-1.0650435427982397,0.3216205479112551,-0.8431685616384607,nan,nan,nan
14.33195175200035,1526840.5321529782,-4462992.307821424,4278799.892289034,1.2271515631626244,0.21975096144392597,0.8404459361008659,-0.6602967479559253,0.28481638135535187,-0.15811958223221043,0.67667276568658,0.8715999999999999,-3.6128,12.023513300000001,0.6486516165036926,-0.1747074581246324,0.03276855670619353,nan,nan,nan
14.40566204300012,1526840.6224407048,-4462992.291653237,4278799.954124878,1.1821529486587137,0.15957405391774865,1.122049687780121,-0.6462323942028668,0.31652733701562036,-0.14115686852216391,0.6799035789215915,0.1016,0.5871999999999999,13.0535133,1.0042624515975374,-0.31433379828417873,0.04913101844364037,nan,nan,nan
14.482718459999887,1526840.7136359732,-4462992.279343156,4278800.040683578,1.1764790676221613,0.2047391694346209,1.0532935804674637,-0.640058323206981,0.31409653558217493,-0.15960815124155037,0.6827839686480195,-1.3584,-0.1728,8.673513300000002,-0.3047344873982099,-0.2652464130718382,0.31747539093776855,nan,nan,nan
14.57875900199997,1526839.8713506556,-4462992.116496623,4278799.587182991,0.06700890936317383,0.20382819069989036,0.8583756363358042,-0.6559599537941516,0.2917046284477681,-0.1815671826595588,0.6720552860429986,0.15159999999999998,-1.2428000000000001,9.203513300000001,0.07051130178057091,-0.053625241267525776,-0.3228422783876511,42.403158,-71.113605,32.8
14.65259933499965,1526839.877809005,-4462992.096851568,4278799.669913629,0.032638667399579074,0.3438819044314545,0.6748623423717488,-0.670144197553508,0.2778942690269041,-0.18244416313900677,0.6636231292086021,-1.1584,-0.9128000000000001,7.283513300000001,-0.3178244567881674,0.18308503853420516,-0.25521076987287084,nan,nan,nan
14.727383002000352,1526839.8802485932,-4462992.071148001,4278799.720356439,-0.030192352623761076,0.4399715445016136,0.5191436133506403,-0.6619899716185575,0.2871662494633844,-0.18520285466801428,0.6670867453526229,-1.5284,-0.7028000000000001,7.1335133000000015,0.1948660109851669,-0.22815816646695875,0.182212373908208,nan,nan,nan
14.903793002000384,1526839.8749252323,-4462991.993574473,4278799.811889181,-0.29352787846204187,0.4440740491482237,0.4701427908741712,-0.6723544595703691,0.3106226786409657,-0.16335315511126725,0.6517428783513365,-1.2884,0.37720000000000004,9.253513300000002,0.27558748888990464,-0.04162610266006476,-0.31411563212767946,nan,nan,nan
14.978600751999693,1526839.852936423,-4462991.960307924,4278799.847108596,-0.1836940715875092,0.3620762721119112,0.8802152049180831,-0.6775828081653648,0.333427417073061,-0.1684350759759308,0.6335118952004379,1.7616,-0.9128000000000001,14.823513300000002,0.19813850333265626,-0.6164939250356971,-0.47555858793715494,nan,nan,nan
15.05491241799973,1526839.838977388,-4462991.932793507,4278799.913996736,-0.28772015184084454,0.446079804926356,0.9863529256798199,-0.6836591593515204,0.3480463561885793,-0.15555001099821097,0.6223167058771798,1.0616,1.1072,9.783513300000001,0.37267142853208923,-0.08525933395992301,-0.47883108028464433,nan,nan,nan
15.12952962700001,1526839.817498743,-4462991.899493129,4278799.987629132,-0.3356690764339355,0.585706195934556,0.9595580044447842,-0.6813161471501339,0.3455755242645003,-0.15616432819075288,0.6260978899655283,0.6416,0.2172,8.143513300000002,-0.01784599160164202,0.055457836982119826,0.12439834243589584,nan,nan,nan
15.306529751999733,1526839.7581026873,-4462991.7958534425,4278800.157421242,-0.43684287983097114,0.913654341748049,0.3074276121003755,-0.6754732061167602,0.3689399212464197,-0.11935124012004247,0.6271957942840348,-1.5384,-0.7827999999999999,5.803513300000001,0.465392045044288,0.11218103767193553,-0.13521938379826068,nan,nan,nan
15.380481168999722,1526839.7256590398,-4462991.727997743,4278800.180253417,-0.20454629954447587,0.753094461472035,0.4879857382472249,-0.6816001516516013,0.3573218723096906,-0.09000158082375961,0.6321724676412116,-0.18839999999999998,-1.4328,13.813513300000002,0.2395900730675216,0.7994044306447028,-0.2672099084803319,nan,nan,nan
15.455187501999717,1526839.7104415111,-4462991.67197015,4278800.216557848,-0.040798686712822635,0.6080656784920461,0.5232196317901001,-0.6683050139032608,0.3563931728239279,-0.09743202121499252,0.6456464330846724,-2.1084,-1.0828,11.943513300000001,0.01706059343824457,-0.02308197935762501,0.5465498552620243,nan,nan,nan
15.52958425199995,1526839.7074061842,-4462991.626731483,4278800.2554841675,0.041511685841351675,0.6537245132307798,0.6842995284456954,-0.6418643975718881,0.3990458476573942,-0.12620942385591846,0.6425291343462713,0.7415999999999999,0.4072,11.273513300000001,0.5122977686916356,-1.3571680263507906,0.567275640129457,nan,nan,nan
15.622266960000161,1526839.8154304496,-4462991.982920928,4278799.629845376,0.3159860164180415,0.04950699397863789,-0.20903008503524145,-0.607462521988492,0.45030748483119365,-0.14475464544553449,0.6381681178679061,1.4216,-0.042800000000000005,9.113513300000001,0.563566815468969,-0.24015730507441976,0.48546333144222276,42.403159,-71.113605,32.8
15.699073585000406,1526839.8449232941,-4462991.978300148,4278799.610335361,0.3783704411505471,0.12644780708134484,-0.367846079861882,-0.5790024273313702,0.4444077072338027,-0.170246601865961,0.6620227141159222,0.2316,0.37720000000000004,8.323513300000002,-0.07675085385645064,-0.10925761117484503,0.9643380449581669,nan,nan,nan
15.772466252000413,1526839.872628713,-4462991.96904126,4278799.583400568,0.3723516296421397,0.20051922293723368,-0.5335571799288894,-0.5664102191830441,0.44333791815202334,-0.15554261845766768,0.6770800900438007,-0.02840000000000001,0.7672000000000001,7.583513300000002,0.4719370297392667,0.3761620870360779,0.2923862829403501,nan,nan,nan
15.850123084999723,1526839.9013225795,-4462991.953589006,4278799.542284007,0.38407777920513986,0.20703536393045907,-0.6549404162608152,-0.5533374242628586,0.42501538454329363,-0.1633576805939396,0.69749113726224,-0.25839999999999996,1.3072,8.693513300000001,-0.17383479349863523,0.3892520564260354,0.6938120108990459,nan,nan,nan
15.927466459999778,1526839.9312407183,-4462991.937461771,4278799.491266741,0.49394621415794426,0.2373511702017469,-0.6634670710756491,-0.5583400198705908,0.379785789593405,-0.14205213922840573,0.7237681718141512,0.8416,0.31720000000000004,9.863513300000001,-0.20546888619103246,1.4211779766676829,0.2411172361630166,nan,nan,nan
16.00205496000035,1526839.9682088054,-4462991.919697856,4278799.441611318,0.628915109712498,0.21786565712995343,-0.6526249606170256,-0.5665816708519671,0.35191075173684444,-0.15376574842064117,0.7290405532177107,-0.5584,0.06720000000000001,10.6335133,-0.7061602153569058,0.44924774946334045,0.14403329652083205,nan,nan,nan
16.07411087699984,1526840.013236428,-4462991.90409961,4278799.394886171,0.6536944897493648,0.18453852131378246,-0.5364438658106762,-0.581013524200344,0.35261779516435793,-0.1781239296270177,0.7115868474618512,0.11159999999999999,1.1972,11.273513300000001,-0.7017968922269199,-0.5095925083510444,-0.33375058621261566,nan,nan,nan
16.150877668999783,1526840.0634844524,-4462991.889914549,4278799.353650939,0.7346216583317745,0.2100154999985897,-0.45022873817036735,-0.6027286500873295,0.3523464860245584,-0.18231728171372072,0.6923370115018515,0.6516,-0.3228,10.643513300000002,-0.37018433434799725,-0.1343467191722635,-0.6533640054840772,nan,nan,nan
16.224571877000017,1526840.117881656,-4462991.874363339,4278799.3203124385,0.8326817811216317,0.25741290256979266,-0.533957223896406,-0.6072679674138443,0.3569630641400539,-0.18972039334808355,0.6839657590094655,-0.5984,-1.3028,8.943513300000001,-0.14765485471872028,-0.2641555822893418,-0.17339846118563665,nan,nan,nan
16.30087375200037,1526840.181453232,-4462991.854711001,4278799.279547163,0.8501342882490501,0.3423811147443323,-0.6616478083059232,-0.6018350621840282,0.3829901592008639,-0.18067179318682905,0.6771047183299223,-0.45840000000000003,-0.5327999999999999,7.963513300000002,0.5930192465963734,-0.4135993994913562,-0.22575833874546652,nan,nan,nan
16.375235376999626,1526840.2446642232,-4462991.8292535525,4278799.230350919,0.7053381052414933,0.3102907272321541,-0.7258414569517129,-0.5963695598571963,0.4106341318324216,-0.1637678604583693,0.670002273345098,-0.6884,2.3971999999999998,8.943513300000001,0.7773696488382744,-0.3296054292391291,-0.32393310917014756,nan,nan,nan
16.45244971000011,1526840.2991362507,-4462991.805290342,4278799.174295453,0.9352856762683172,0.337711928502762,-0.5569492456414982,-0.5889762148298778,0.40347476068459476,-0.16229035952299484,0.6811585539489463,2.5016,-1.0628,11.853513300000001,0.0410588706531666,0.2343540853115386,0.3152937293727756,nan,nan,nan
16.526248252000187,1526840.3680529713,-4462991.780405968,4278799.133256532,1.0328008618904232,0.20879621864571907,-0.5225053351927988,-0.5909068895153142,0.384269723014669,-0.15985261620344182,0.6910954851156421,-0.45840000000000003,0.5572,11.703513300000001,-0.2392846404484226,0.5114251040656383,0.18112154312571155,nan,nan,nan
16.613410085000396,1526840.447513657,-4462991.764341797,4278799.093056496,1.1111415479363904,0.1231297681341127,-0.5558513505205616,-0.5972408889088838,0.3755541780106857,-0.1636642111841533,0.689547972608329,-1.0984,0.2772,10.563513300000002,-0.2720095639233162,0.10890854532444616,-0.0632245521534946,nan,nan,nan
16.69324708499971,1526839.9557319726,-4462991.881890388,4278799.566722403,0.39808811084299023,0.2338341702034954,0.1270648793506065,-0.6021420497033221,0.34583900743132495,-0.1993517350740956,0.6914327293364763,1.3616,-2.4928,9.853513300000001,-0.09529497715889039,-0.3721478297564909,0.07531095722355531,42.403159,-71.113603,32.8
16.76718383499974,1526839.9876386018,-4462991.863148658,4278799.576906611,0.39276482051903583,0.2800188142308331,0.013526820925210792,-0.5925815891626153,0.3443434630232038,-0.2109073702603521,0.6969883222732666,-0.7084,-0.25279999999999997,8.423513300000002,-0.11165743889633724,-0.147436688562221,0.3556544683251445,nan,nan,nan
16.844244752000122,1526840.0178304175,-4462991.841623623,4278799.577946417,0.3956032376696847,0.43570236668170115,-0.10924756838630945,-0.5781342251151839,0.3546091519876641,-0.21631399339201765,0.7022972475359682,0.2316,-0.7327999999999999,7.313513300000001,0.21886428820008894,-0.30124382889422124,0.3360195142402083,nan,nan,nan
16.918448127000374,1526840.0471012327,-4462991.809385859,4278799.569863153,0.3482699038923007,0.4610349369609056,-0.16390756284528502,-0.5671798734398165,0.3513541052967641,-0.2153294570382314,0.7130852048277737,-0.02840000000000001,0.5272,8.913513300000002,0.13596114873035828,0.11654436080192135,0.3861977302350453,nan,nan,nan
16.994890459999624,1526840.073860246,-4462991.773962643,4278799.557269459,0.3590474773197941,0.3003084417279812,-0.14059650429664966,-0.5600428021200967,0.3335380640562329,-0.1996014308490253,0.7316171737861651,-0.9984,0.6072,11.513513300000001,0.19813850333265626,0.6925030139600501,0.36219945302012324,nan,nan,nan
17.068627460000243,1526840.1002666468,-4462991.751876246,4278799.546929189,0.3454840861522904,0.07207084625875093,-0.09696404664064068,-0.5585588383278248,0.3229273530898852,-0.18222916738062284,0.741972020944685,-2.0284,1.4472,12.2235133,0.25377087323997555,0.5616033200604753,0.08731009583101633,nan,nan,nan
17.14580858499994,1526840.126948095,-4462991.746310275,4278799.539440736,0.38163085959081733,0.030020372668262185,0.01579454611523773,-0.5647650036867704,0.332412270348883,-0.17279399312704016,0.7353127291351206,-0.2184,0.3572,11.2935133,0.23522674993753576,-0.07216936456996553,-0.33920474012509794,nan,nan,nan
17.219329169000048,1526840.1550547944,-4462991.744099307,4278799.540603987,0.4344418726409486,0.1198470623345993,0.025519731493738096,-0.5705046598277611,0.3342802104133871,-0.16514563563925644,0.7317841851439819,0.15159999999999998,-0.37279999999999996,9.2935133,0.1130537022979327,0.07509279106705602,-0.2464841236128992,nan,nan,nan
17.29632337699968,1526840.188549792,-4462991.734859228,4278799.542571531,0.3543961575418966,0.1742861716084687,-0.10798359532370261,-0.5728249681627842,0.3305167722814154,-0.15887872646940485,0.7330673706571478,-1.3084,1.2571999999999999,7.743513300000001,0.04869468613064179,0.18526670009919807,-0.0632245521534946,nan,nan,nan
17.370412502000363,1526840.214700404,-4462991.721998789,4278799.534603506,0.4146174453995852,0.38102515162030276,-0.13735021913521467,-0.559623099279537,0.33531250392556344,-0.1847767023611366,0.7350136612915587,0.7716,-0.8928,7.973513300000001,-0.31346113365818157,-0.5368632779134558,0.5040074547446625,nan,nan,nan
17.447084501999598,1526840.2465950067,-4462991.692688286,4278799.52403779,0.3040396730372848,0.5440669241469812,-0.28956384603158003,-0.5540644513969468,0.3487440449776484,-0.17838209334196145,0.7345542894317014,-0.1984,1.0672,6.5935133000000015,0.3639447822721176,-0.1943424122095686,-0.020682151636132805,nan,nan,nan
17.521154627000215,1526840.2690133464,-4462991.652571557,4278799.502686824,0.24857906964791077,0.42346346862938433,-0.21107263262279968,-0.5528310545621552,0.3335171295461559,-0.19378887746061116,0.7386406575191268,-0.6284000000000001,2.1972,11.323513300000002,-0.5043565205950613,0.10454522219446033,0.3054762523303075,nan,nan,nan
17.60842912699991,1526840.2882034539,-4462991.619880512,4278799.486392183,0.4573019131653311,0.4264120591957665,0.06948830261030742,-0.55869550382943,0.32336336697614115,-0.1677038628905646,0.745097900833816,1.7216,-1.7928,13.063513300000002,0.33558318192720976,0.6532331057901777,-0.1941242460530693,nan,nan,nan
17.68199850200017,1526840.3264113904,-4462991.584253447,4278799.492197986,0.48172034566441807,0.35364838712466784,0.14020133333178403,-0.5568636298396177,0.30151060330967794,-0.18900704179621083,0.7505135525504308,-1.0384,0.8171999999999999,10.9735133,-0.6363470452771325,0.13945180723434691,0.3578361298901374,nan,nan,nan
17.764944376999665,1526840.2473834443,-4462991.723085086,4278799.52119829,0.37918105843580635,0.2174646265108463,0.06725100957030616,-0.5537161431409623,0.30431689369193643,-0.20601440962947315,0.7472266889107688,-1.0984,-1.1028,9.243513300000002,-0.06693337681398254,-0.22597650490196583,0.034950218271186446,42.403159,-71.113599,32.7
17.838876544000414,1526840.2776765982,-4462991.705711619,4278799.526571041,0.49307278111935693,0.2521682367760131,0.009989257157085318,-0.5352052405120088,0.3001173086890765,-0.22701097276573176,0.7562744014935372,-1.2384,-1.4828000000000001,9.2935133,-0.2632829176633446,-0.2390664742919233,0.653451271946677,nan,nan,nan
17.91757350199987,1526840.316445945,-4462991.685884125,4278799.5273564765,0.4384307186633979,0.357088371409097,-0.07978525578280954,-0.516535721422048,0.3354453782667141,-0.22639907211759347,0.7545930740442436,-0.3084,0.1072,7.933513300000001,0.625744170071267,-0.7921176810176265,0.1276708347833852,nan,nan,nan
17.993952627,1526840.349959206,-4462991.658588601,4278799.521257761,0.31897903518773146,0.4334921079819795,-0.18217227814052678,-0.5025957428417924,0.34422905358814687,-0.22411288826565298,0.7607084144487202,0.0416,1.4272,7.783513300000001,0.32249321253725227,-0.171434965777143,0.2858412982453713,nan,nan,nan
18.270935751999787,1526840.4382987085,-4462991.538535329,4278799.470806143,0.11820284041637874,0.44543631904910147,-0.3517065318307068,-0.5143767149292173,0.343429436502488,-0.21143003233489066,0.7568158027326204,-0.0784,1.2271999999999998,9.1335133,0.0312413936106985,0.05982116011210565,-0.10903944501834574,nan,nan,nan
18.34506875199986,1526840.4471279928,-4462991.505262999,4278799.444535057,0.170213517880009,0.5116545215831616,-0.3053265555948185,-0.5115981433343268,0.3603248812895813,-0.23364482068629683,0.7442065694306456,0.8416,-0.2928,9.813513300000002,-0.2632829176633446,-0.7801185424101654,-0.008683013028671789,nan,nan,nan
18.42153758600034,1526840.460090206,-4462991.466299143,4278799.421283626,0.1091186134705685,0.5272693950481645,-0.37501258379818025,-0.51740622315321,0.3840964053625665,-0.23214397229858075,0.7286082131791164,0.1416,1.1272,8.813513300000002,0.19813850333265626,-0.556498231998392,-0.48319440341463016,nan,nan,nan
18.49619404399982,1526840.4682346967,-4462991.426944348,4278799.393293109,0.1886579371070906,0.5240015250866001,-0.5206562647734696,-0.5177577676151569,0.37073498136811384,-0.24298876832608796,0.7317369245078915,-0.8184,-0.4428,8.943513300000001,-0.38109264217296185,0.14490596114682922,0.2312997591205485,nan,nan,nan
18.582442543999605,1526840.4825729749,-4462991.387119468,4278799.353722474,0.1488141740460003,0.5258212115801227,-0.6654419751564271,-0.5131937010718679,0.38772183810491684,-0.2355602990844781,0.728570756679595,-0.5484,0.7871999999999999,8.433513300000001,0.39885136731200416,-0.28597219793927087,-0.13631021458075715,nan,nan,nan
18.66316016899964,1526840.4961218666,-4462991.339245704,4278799.293136838,0.10398016364687337,0.3875417125445435,-0.722231441109788,-0.5127903085735223,0.39122716147973735,-0.22394703898580157,0.7306402205188368,-0.2184,1.6372,10.323513300000002,0.2395900730675216,0.09036442202200641,-0.08722282936841662,nan,nan,nan
18.73677816899999,1526840.5038054548,-4462991.310608406,4278799.2397677265,0.15983764986234097,0.27655641648606333,-0.6605580538967576,-0.5226267829339762,0.380649147720147,-0.20850311125182946,0.7338214532534864,0.6516,0.8071999999999999,11.563513300000002,0.07378379412806028,0.5168792579781206,-0.24975661596038856,nan,nan,nan
18.819757168999786,1526840.3129346396,-4462991.654891771,4278799.480088828,-0.12579651492086186,-0.10488195944212825,-0.496738709827086,-0.529008853189762,0.3447165010958403,-0.2366863472778431,0.7384441351166046,-0.8484,0.2672,11.033513300000001,-0.6756169534470049,0.2856231320888721,0.1723948968657399,42.403159,-71.113598,32.7
18.89322125200033,1526840.3028733504,-4462991.663280301,4278799.440359334,-0.07312257131889821,-0.22715287551795255,-0.48649368152837613,-0.5163985502963234,0.36021058996675137,-0.26597803751314875,0.7299565413400021,-0.6684,0.017200000000000007,11.143513300000002,-0.27746371783579854,-0.8215701121450308,0.28147797511538547,nan,nan,nan
18.972071543999846,1526840.2971102071,-4462991.681183317,4278799.402016416,-0.0009754162007075129,-0.2996888639931354,-0.6289638679238522,-0.5051390363860737,0.3614329181617704,-0.2736267057177012,0.734390377158387,-1.1984000000000001,-0.6328,9.603513300000001,0.007243116395776468,-0.15834499638718555,0.3283836987627331,nan,nan,nan
19.046633001999908,1526840.2970375218,-4462991.703515319,4278799.355147732,0.034517208259329524,-0.22121452853665435,-0.7496495522055304,-0.48269288497109186,0.37690878934747213,-0.2792835072225638,0.739559373181839,0.2316,-0.8628,8.103513300000001,0.35412730522964947,-0.49650253896108687,0.45382923874982556,nan,nan,nan
19.323962419000054,1526840.3066061004,-4462991.764838604,4278799.147336006,-0.4416943903656271,-0.11181246714498705,-1.711760698401704,-0.5608271902665517,0.3382174663051055,-0.24408102764883752,0.7151966587187824,-0.8084,1.7072,6.953513300000001,-0.20874137853852182,0.4208861491184326,-0.5202826500195097,nan,nan,nan
19.398271711000234,1526840.2737352038,-4462991.773159688,4278799.019946775,-0.4896116432693416,-0.3289274312684404,-1.7562173562885286,-0.5733244981191786,0.3442452294652175,-0.2488935978419534,0.7006041816581334,-1.9083999999999999,0.9972000000000001,11.393513300000002,-0.21092304010351473,-0.2390664742919233,-0.45592363385221873,nan,nan,nan
19.474901335999675,1526840.236307576,-4462991.798304052,4278798.885695374,-0.4781125524310911,-0.4120374795921943,-1.7925425494051288,-0.5778812174215492,0.35135206466549546,-0.23660429273034236,0.6975839981142052,-0.5684,-0.4128,10.313513300000002,0.2712241657599188,0.05654866776461628,-0.2857540317827716,nan,nan,nan
19.581270001999656,1526840.200766183,-4462991.828933631,4278798.752443362,-0.6333533536922153,-0.4826657436910081,-1.835725948241667,-0.5748096099222881,0.3646865378453298,-0.24346272540840896,0.6908860567045965,-0.4084,1.9272,9.663513300000002,0.06505714786808862,-0.4397793382712712,-0.06649704450098395,nan,nan,nan
19.658406001999538,1526840.1318432726,-4462991.881458383,4278798.552675611,-0.747694005865452,-0.35752175883183235,-2.0482511874785834,-0.590797427755736,0.3542582128179931,-0.20290394350867108,0.6959091235740346,0.0416,0.3872,7.463513300000002,0.32031155097225933,0.6663230751801351,-0.375202155947481,nan,nan,nan
19.73155787700034,1526840.0767180987,-4462991.90781736,4278798.401664366,-0.8470183012777869,-0.31908373037582144,-2.200018867981848,-0.5829980094613981,0.3501109012175946,-0.19653632753726547,0.7063350128144291,-1.0084,1.0472,7.723513300000001,0.18613936472519524,0.23762657765902798,0.2760238212029032,nan,nan,nan
19.808689626999694,1526840.011412317,-4462991.9324189685,4278798.232041169,-0.8548933689341541,-0.3252749092621154,-2.0616632162215387,-0.5762221097103223,0.34986083825870684,-0.18077713086874658,0.7161599707087154,1.1616,0.6272,11.0435133,0.39666970574701127,0.29762227069633307,0.13094332713087456,nan,nan,nan
19.889112961000137,1526839.8368505777,-4462992.786905798,4278798.238556436,-1.2458749939396574,-1.108697224165429,-2.0362447964750885,-0.5896739285571216,0.37797842764136785,-0.1850348999449637,0.689332323757468,-0.6884,2.8872,11.813513300000002,0.34103733583969204,-0.4386885074887747,-0.39156461768492784,42.403145,-71.113608,32.6
19.969408251999994,1526839.728857458,-4462992.883008274,4278798.062053634,-1.172650595211432,-1.3131860210482496,-1.92695156563028,-0.597100270515775,0.36873737787651517,-0.20004245226037742,0.6837302325896806,-0.4384,0.6372,12.503513300000002,-0.4530874738177279,-0.07435102613495845,-0.02395464398362217,nan,nan,nan
20.044015043999934,1526839.6420562486,-4462992.980212109,4278797.9194180295,-1.2153810258178512,-1.3522377900334788,-2.046429911247868,-0.5914139103465057,0.368298423508338,-0.21222415832130967,0.685234824765557,-1.2484,0.6572,8.9735133,-0.1672898088036565,-0.2041598892520367,0.25311637477047766,nan,nan,nan
20.120037419000255,1526839.5491529289,-4462993.083576715,4278797.76298961,-1.215990542082327,-1.3191922343203324,-2.2586776816395715,-0.5787140864596576,0.3611425072656026,-0.22977925670687074,0.6941668310450015,-1.3684,-0.3528,7.703513300000001,-0.2534654406208765,-0.1278017344772848,0.5749114556069321,nan,nan,nan
20.19443775200034,1526839.4587144933,-4462993.181690703,4278797.595002057,-1.142362172296298,-1.187747009685022,-2.339157378568369,-0.5584498671212345,0.36285616190395653,-0.2673987952395126,0.6963957470733191,0.7716,-1.5428,8.033513300000001,-0.46508661242518895,-0.7212136801553568,0.7679885041088048,nan,nan,nan
20.271319043999938,1526839.3706297542,-4462993.273274955,4278797.414635382,-1.2159139624905537,-1.1632301960677878,-2.4402513309521963,-0.5488935923739695,0.3585518338018186,-0.26817683794318947,0.7058594696366182,0.29159999999999997,0.3472,8.513513300000001,0.07923794804054256,0.08927359123950995,0.34692782206517286,nan,nan,nan
20.345045168999604,1526839.2812184328,-4462993.358812216,4278797.23519333,-1.327409217088046,-1.3194522839896425,-2.478544257033062,-0.5499070784826039,0.34955781625161847,-0.2670877268046242,0.70998287646901,-0.46840000000000004,1.5672,10.753513300000002,-0.09311331559389749,0.2365357468765315,0.09712757287348443,nan,nan,nan
20.42217250199974,1526839.1790772257,-4462993.460341155,4278797.044474824,-1.3853211633076497,-1.531792083869775,-2.545046388162066,-0.5640551097340846,0.33374502890613217,-0.24119828893165265,0.7157370151364966,-1.4084,0.9172,11.183513300000001,0.16323191829276967,0.8124944000346602,-0.30429815508521135,nan,nan,nan
20.49574658599977,1526839.0769907148,-4462993.57322134,4278796.856926325,-1.460474904928363,-1.6818576845857058,-2.580906667996734,-0.576591489296971,0.3368889113346598,-0.23373847094540345,0.7066926090224074,-1.3384,1.1072,10.733513300000002,0.02033308578573394,0.05327617541712691,-0.47010443402467267,nan,nan,nan
20.582716711000103,1526838.9649176444,-4462993.702282753,4278796.6588742165,-1.5163998419982472,-1.737218948667195,-2.576378198908446,-0.5839951358416254,0.3505689971070938,-0.23834344631341103,0.6922741232610373,-0.17840000000000003,0.5272,10.203513300000001,-0.03202679177409595,-0.40269109166639167,-0.39592794081491367,nan,nan,nan
20.65667979400041,1526838.837123806,-4462993.8486860115,4278796.441751232,-1.6218656114977201,-1.7709285741868235,-2.5695989680536684,-0.5899683421936118,0.3640383931058653,-0.252165057349757,0.6751490116727998,0.3816,0.9472,9.8735133,-0.1869247628885927,-0.5215916469585055,-0.2966623396077362,nan,nan,nan
20.93975566900008,1526839.2704257043,-4462992.950184542,4278798.163618559,-0.3305637792124094,1.0884417482264652,0.4212428564848252,-0.6797038726980379,0.23810540718412104,0.003162981880794981,0.693756770497657,0.8715999999999999,-0.7028000000000001,8.353513300000001,0.07923794804054256,0.8670359391594831,-0.27484572395780704,42.403145,-71.113615,32.5
21.01610916899972,1526839.2430485908,-4462992.860040385,4278798.198505664,-0.37226645084546117,1.1919058951639028,0.7405596391613829,-0.6765644076867685,0.23563132273263845,-0.018415835744003337,0.6974233574732875,-1.8084,2.1271999999999998,11.683513300000001,-0.3843651345204512,-0.29142635185175314,0.2367539130330308,nan,nan,nan
21.088309085999754,1526839.2161703948,-4462992.773982991,4278798.251975181,-0.37752366679745863,1.4363784760225575,1.0289561007553845,-0.6820829046067733,0.24639649206098108,-0.03714303216771463,0.6875115094755593,0.5716,1.2371999999999999,11.3035133,-0.20110556306104663,-0.6208572481656829,-0.17558012275062956,nan,nan,nan
21.166612711000198,1526839.1866139572,-4462992.661528503,4278798.332532453,-0.2665763041574426,1.6972477928266374,1.2111299553982817,-0.6883742740271254,0.23485631296304393,-0.04208330523304735,0.6849907788404446,0.4416,-0.8128,10.273513300000001,-0.3298235953956284,0.10672688375945324,-0.11231193736583511,nan,nan,nan
21.23933904400019,1526839.1672689256,-4462992.538361846,4278798.420422288,-0.19801368928418378,1.8822420243306244,1.2266351918820995,-0.6820598603036785,0.22461841483183695,-0.04715273971991129,0.6943468401127852,-1.1884000000000001,-1.1428,8.5535133,-0.23819380966592613,0.1503601150593115,0.3414736681526906,nan,nan,nan
21.317334669000047,1526839.1517937516,-4462992.39126079,4278798.516286331,-0.17668643033299328,2.185379196244665,1.2376755798801677,-0.6838000287813392,0.2077889649958598,-0.046529542347105234,0.6979084960869169,-0.1284,-0.7128000000000001,7.793513300000002,-0.2883720256607631,0.33252885573621965,0.048040187661143915,nan,nan,nan
21.389571710999917,1526839.1390296735,-4462992.2333859,4278798.605697769,-0.1587093448970814,2.419853176774385,1.3311768308561658,-0.6804057717853063,0.20585819920613208,-0.055314243875770525,0.701149572147089,-0.5184000000000001,-0.5728,9.033513300000001,-0.18256143975860686,-0.11471176508732732,0.18003071234321508,nan,nan,nan
21.468016169000293,1526839.126575467,-4462992.043495685,4278798.7101576,-0.23810065564141555,2.594603398475939,1.4490448944702705,-0.6797621017685938,0.2086612502383577,-0.04036537341009133,0.7019648173764246,-1.3384,0.6572,9.313513300000002,0.32031155097225933,0.21253746966160947,-0.05667956745851586,nan,nan,nan
21.575677003000237,1526839.1093565633,-4462991.855859805,4278798.814949267,-0.2992130790708587,2.7222162583900276,1.6408256369797625,-0.6808847406162756,0.2001295142883057,-0.02718810227201117,0.7039921556084444,-1.5284,1.0172,10.513513300000001,0.09123708664800358,0.42634030303091486,-0.05013458276353712,nan,nan,nan
21.75151521099997,1526839.0461685956,-4462991.280980814,4278799.161459645,-0.05020710525486832,3.670249564431465,2.141188551691573,-0.729137133525448,0.19608983532692978,-0.05214149885336922,0.6535970330791124,0.6516,-1.1428,9.843513300000001,-0.29709867192073475,-0.21724985864199417,-0.5988224663592545,nan,nan,nan
21.82826950300023,1526839.0423144952,-4462990.999237626,4278799.325825931,-0.061417630958210984,3.909249724103827,2.30077017450211,-0.7419775099470495,0.18833789356177513,-0.05391876966148555,0.6411637695756246,-0.2884,-0.5027999999999999,9.693513300000001,-0.2600104253158552,0.052185344634630454,-0.4351978489847861,nan,nan,nan
21.902424918999714,1526839.0377626477,-4462990.709511237,4278799.496343007,-0.03346868944375456,4.175716518035381,2.387956264179779,-0.7442755939286526,0.200146488655216,-0.04653323680380787,0.6354761063883069,-0.05840000000000001,-1.3528,8.763513300000001,0.34430982818718137,-0.08198684161243364,-0.20830504622552323,nan,nan,nan
21.985391793999952,1526838.895903639,-4462993.335297147,4278797.841328242,-0.3178585087724254,-0.04862037310864409,-0.0430669452183019,-0.7394163068258572,0.3725740380446058,-0.15261545360161258,0.5395930274325855,0.7315999999999999,-0.032799999999999996,7.363513300000001,0.7010114940635225,-0.39832776853640584,-0.3948371100324172,42.403141,-71.113621,32.4
22.05929446099981,1526838.870417108,-4462993.339195626,4278797.837875048,-0.4391634620612828,0.0231670879623459,-0.04212570606284527,-0.7417404504764337,0.37049356452473103,-0.15106048743713674,0.5382716344604956,0.3916,0.9672000000000001,8.8835133,-0.044025930381556964,0.05327617541712691,-0.06213372137099814,nan,nan,nan
22.138605627999823,1526838.835564968,-4462993.337357079,4278797.83453194,-0.4175494111852632,-0.04800906053918319,0.11600111737926144,-0.7461660381826424,0.378801825943003,-0.13130526974567935,0.531511379764181,1.0216,-0.18280000000000002,11.823513300000002,0.3563089667946424,0.21035580809661655,-0.4024729255098924,nan,nan,nan
22.725122460999955,1526838.5948168337,-4462993.365037855,4278797.901415167,-0.5888032369040568,0.06221074960669237,-0.1387449239024272,-0.7332985661693944,0.15246618135780998,-0.05002368841586004,0.6607003159906112,-0.10640000000000002,-0.18580000000000002,9.302513300000001,-0.364730180435515,0.8015860922096957,0.35892696067263385,nan,nan,nan
22.796686503000274,1526838.5466173512,-4462993.359945278,4278797.890057496,-0.7183077007207683,0.20306825089337177,0.15118825413638626,-0.7362675649932546,0.1417947215168964,-0.03212842611539395,0.660887353851577,-2.0084,0.43720000000000003,11.2135133,0.08687376351801775,0.4972443038931845,-0.09813113719338118,nan,nan,nan
22.87532208599987,1526838.490348538,-4462993.3440378755,4278797.901900865,-0.8014655210851523,0.4754808187830681,0.44196269352300777,-0.747646692836566,0.15396610535587538,-0.029908337400415534,0.6453095017143128,-0.6684,0.16720000000000002,10.913513300000002,0.2123193035051102,-0.21070487394701545,-0.5028293574995664,nan,nan,nan
22.94772475300033,1526838.4323115814,-4462993.309606626,4278797.933904949,-0.7944144009093912,0.7437781161867671,0.6930246205406156,-0.7504014986881213,0.14669478416443882,-0.03258604553376365,0.6436741266035046,-0.1484,-0.8228,10.8035133,-0.21092304010351473,0.06963863715457375,-0.0654062137184875,nan,nan,nan
23.032404753000264,1526837.893177881,-4462993.970302985,4278797.625403308,-1.8983953085795109,-0.3040120256595218,0.3156665041159967,-0.7258694789028307,0.16345792994947278,-0.12918228244467433,0.655520360624362,-1.1884000000000001,0.7672000000000001,10.4735133,-0.04511676116405342,-0.36560284506151214,-0.21048670779051615,42.403138,-71.113635,32.4
23.106893877999937,1526837.7402509858,-4462993.99479294,4278797.6508321,-1.915963455312691,-0.0001925526762951435,0.38514563797736323,-0.7229617414443382,0.1842917874283298,-0.1294798786210444,0.6531445621631277,0.4316,-1.8728,8.1335133,0.3748530900970822,-0.36342118349651925,-0.06104289058850168,nan,nan,nan
23.185086753000178,1526837.590230808,-4462993.994808017,4278797.680989051,-2.152719145422664,0.2582587654581446,0.440353172234778,-0.7144372804474646,0.18733007468478122,-0.13006296014152055,0.6614910750580033,-0.1284,1.1072,8.083513300000002,0.11414453308042916,-0.050352748920036404,0.2891137905928607,nan,nan,nan
23.259179460999803,1526837.430220451,-4462993.975611794,4278797.713720245,-2.3200748078272655,0.41466233694074023,0.6392465308255093,-0.708351309207483,0.18372358704829295,-0.11610772195956402,0.6715676166732999,-0.2184,0.5372,10.413513300000002,0.24504422698000386,0.36198128686362396,0.244389728510506,nan,nan,nan
23.335495586000434,1526837.2535106956,-4462993.944028812,4278797.762408804,-2.4689091223207376,0.43310704026383756,0.9281355469618288,-0.7022756545033046,0.17589742949569084,-0.08101206745150902,0.6850591542872323,-1.6984000000000001,0.49720000000000003,12.203513300000001,0.5439318613840328,0.8375835080320787,0.21275563581810877,nan,nan,nan
23.40963425300015,1526837.070072291,-4462993.91184923,4278797.831368695,-2.4370953892861884,0.6596732791731141,1.294806813277322,-0.7027947637256222,0.17340114650350846,-0.07926620629711455,0.6853673697858113,0.6816,-1.1728,12.393513300000002,-0.016755160819145562,0.08163777576203476,-0.006501351463678878,nan,nan,nan
23.48684862800019,1526836.881890245,-4462993.86091209,4278797.93134812,-2.612053403310444,0.7852050672543516,1.542312470132254,-0.7008134417446538,0.16692171179179763,-0.11440064516714321,0.6840395858023075,-1.4584000000000001,1.2471999999999999,10.953513300000001,-0.73561264648431,-0.5346816163484629,0.182212373908208,nan,nan,nan
23.580629502999727,1526836.689766751,-4462993.803158163,4278798.044789315,-2.786254347266389,0.9648095191263621,1.758165716002107,-0.6878096487814858,0.17860632217603717,-0.14661062422662297,0.6881300706570387,-0.34840000000000004,0.7272000000000001,10.483513300000002,-0.3047344873982099,-0.853204204837428,0.4298309615349035,nan,nan,nan
23.65498966999985,1526836.4261226575,-4462993.711864871,4278798.211152449,-2.7042197871953038,1.3231909615971624,1.931514672728832,-0.6751295303896744,0.17233707942047272,-0.14420656889578265,0.7026410992083281,1.0716,-2.8028,9.0535133,0.03669554752318078,0.14163346879933983,0.4058326843199815,nan,nan,nan
23.737388045000444,1526836.203301594,-4462993.602837188,4278798.370304511,-2.864231773142203,1.5856433242173626,1.9521877593128725,-0.666016226054268,0.18948254167657821,-0.15766241364624695,0.7040321845712708,-0.3084,-0.022799999999999987,7.783513300000001,0.09450957899549293,-0.5390449394784487,0.1745765584307328,nan,nan,nan
23.811548503000267,1526835.9909302648,-4462993.485268078,4278798.5150514245,-3.091067196964639,1.7594939344091267,2.0432735923507472,-0.6675169169117331,0.18354254808830678,-0.14983782061790274,0.7058908745316979,-0.18839999999999998,1.2371999999999999,8.983513300000002,0.04214970143566305,0.2692606703514252,-0.009773843811168244,nan,nan,nan
23.88774796100006,1526835.755198782,-4462993.351085258,4278798.670875897,-3.1856877870418447,1.9644103276956841,2.2003836576130724,-0.6768702705826134,0.1696221938301334,-0.13662754326388366,0.7031414247077822,0.24159999999999998,-0.5428,9.663513300000002,-0.054934238206521525,0.5125159348481348,-0.23012166187545235,nan,nan,nan
23.962530378000338,1526835.5172495416,-4462993.204357148,4278798.835229611,-3.2600745488346563,2.1501999516077617,2.383374359316806,-0.6823497279002794,0.16775076347194076,-0.1440525442254109,0.6967836071894369,-0.1484,-0.8028,10.113513300000001,-0.22183134792847928,-0.10816678039234857,-0.17776178431562248,nan,nan,nan
24.04547367000032,1526836.5274191957,-4462994.605369258,4278797.513414225,-1.3979703655763513,-0.1397416766459485,0.8165169562429457,-0.6861265731810269,0.30076314176638425,-0.15285277522982774,0.6445214409086454,-0.0784,0.027200000000000002,10.743513300000002,0.01487893187325166,-0.24233896663941265,-0.4068362486398782,42.403136,-71.113653,32.4
24.11879408599998,1526836.4162626688,-4462994.616480509,4278797.578337767,-1.4575086098724626,-0.03592759839958659,0.8950731923829595,-0.6932868530718349,0.302622059861612,-0.15971085502035695,0.6342441734760165,0.3416,0.1472,9.533513300000001,-0.17274396271613876,-0.19870573533955443,-0.24866578517789212,nan,nan,nan
24.197438670000338,1526836.301550608,-4462994.619308162,4278797.648783794,-1.5586134708688884,0.1564239922891285,0.9204900813367737,-0.7054563757117422,0.30718355967365757,-0.14980695734905236,0.6209085590652094,0.9016,0.4172,8.2235133,0.09232791743050003,0.04782202150464463,-0.525736803931992,nan,nan,nan
24.272157585999594,1526836.1853800013,-4462994.607649164,4278797.717392139,-1.6031305992492988,0.3313564973479192,0.9545855588424208,-0.712380534275067,0.30305866850646085,-0.14892426409364587,0.6152162074831654,0.9815999999999999,-0.12279999999999999,8.503513300000002,-0.14329153158873445,0.06636614480708437,-0.2137592001380055,nan,nan,nan
24.34825508599988,1526836.0634821588,-4462994.582453686,4278797.789976319,-1.6474393001108594,0.45296696968075095,0.969156119940594,-0.7175701088175425,0.29481332070779864,-0.13951962994336994,0.6153962286868745,0.2016,-0.3228,8.763513300000001,-0.04293509959906051,0.3314380249537232,-0.12322024519079967,nan,nan,nan
24.423073128000397,1526835.9402957088,-4462994.548583307,4278797.862444484,-1.6209756639494848,0.4890660119605762,1.0872331204705823,-0.7220789641059279,0.2879206402670637,-0.14553994813990032,0.6119818612966328,0.06159999999999999,-0.9828000000000001,10.673513300000002,-0.2796453794007914,-0.012173671532660447,-0.06649704450098395,nan,nan,nan
24.498825753000347,1526835.8169997756,-4462994.511383582,4278797.945142469,-1.6313142624113421,0.4682697737550061,1.2211277773657407,-0.7279723525341979,0.28317082341022565,-0.14573468604173745,0.6071506736849249,-0.5284,-0.7527999999999999,11.173513300000002,-0.15638150097869194,0.05873032932960919,-0.1668534764906579,nan,nan,nan
24.583949670000038,1526835.6955131516,-4462994.476510771,4278798.036081839,-1.7334430986545715,0.5337915542677836,1.3451633921326915,-0.7374552239597849,0.29097143011092763,-0.14668863980567537,0.5915892688532538,0.03159999999999999,0.3972,10.243513300000002,0.0039706240482871,-0.22706733568446227,-0.48210357263213366,nan,nan,nan
24.655855670000165,1526835.5528482555,-4462994.432578946,4278798.146790749,-1.8166619475858656,0.5952604613691328,1.5194157457228248,-0.7540219614581468,0.2927561783439168,-0.1555018092468683,0.5670660363290734,0.4316,0.1572,10.7235133,-0.29928033348572763,-0.2979713365467319,-0.62172991279168,nan,nan,nan
24.73421858599977,1526835.410199721,-4462994.385837707,4278798.266098819,-1.9305705267438222,0.5713603795821708,1.6188571928477882,-0.769539611725997,0.29430913283434124,-0.14493173817834015,0.5478920624906396,-0.7284,-0.08279999999999998,10.653513300000002,-0.009119345341670372,0.09909106828197806,-0.6773622826989993,nan,nan,nan
24.810891170000104,1526835.2626773461,-4462994.3421778465,4278798.38980197,-1.828265712255841,0.6332928657650135,1.854940393050689,-0.7818376484275155,0.2751078212603726,-0.15484557569091786,0.5376508406283713,2.0316,-1.9327999999999999,11.673513300000002,-0.6625269840570475,0.04345869837465881,-0.2333941542229417,nan,nan,nan
24.89326800300023,1526835.1119052237,-4462994.289951899,4278798.542773881,-1.8825326235182265,0.6965992219156802,1.785984914858589,-0.7979557644839756,0.28267808060398864,-0.11454498311035588,0.5198453116782239,-0.8584,-1.6828,8.343513300000001,0.4948444761716923,0.6074182129253265,-0.8453502232034535,nan,nan,nan
24.967367545000343,1526834.9724958404,-4462994.238365824,4278798.675033504,-1.9886235228861273,0.7666211934283039,1.7427244726100972,-0.800798128779683,0.28484577232829417,-0.10590007420767192,0.5161108580229714,-1.2484,-0.5828,8.373513300000003,0.1348703179478618,0.13617931488685756,-0.19303341527057286,nan,nan,nan
25.05022804500004,1526835.3847792954,-4462995.585407635,4278797.133404399,-1.2128672316116327,-1.6810550078980915,-0.6588448837070429,-0.759043162625026,0.43237933209147955,-0.11359371481120212,0.47328433205046844,-1.8784,0.1272,8.073513300000002,0.5406593690365434,0.1427242995818363,-0.62172991279168,42.40313,-71.11367,32.5
25.124096878000273,1526835.2875305396,-4462995.720196096,4278797.08057764,-1.33403777067949,-1.72742996455761,-0.7959726754024505,-0.7695545706898101,0.44663247558085467,-0.09880503685547094,0.445581372743151,-1.3184,0.6872,8.813513300000002,0.2526800424574791,-0.1572541656046891,-0.8486227155509429,nan,nan,nan
25.202643669999816,1526835.182672336,-4462995.855975762,4278797.018012496,-1.378185525518604,-1.7279370925061572,-0.8913973256792121,-0.7884000666035571,0.45407706712146995,-0.07000023370429401,0.40907128954738176,-0.0884,0.4572,8.893513300000002,0.16650441064025903,0.11218103767193553,-1.275137551507057,nan,nan,nan
25.2770569610002,1526835.0797260697,-4462995.9850474065,4278796.951427827,-1.3915936189323794,-1.7623290047035383,-0.9475435494413843,-0.8059969366764638,0.43922146156709785,-0.04287665500586038,0.39448072041516824,-0.008400000000000019,0.4772,9.603513300000001,-0.25782876375086233,0.5910557511878797,-0.8028078226860917,nan,nan,nan
25.353937003000283,1526834.9733647716,-4462996.119744489,4278796.879005849,-1.3882057311598794,-1.8682472169738844,-0.9981862004316122,-0.8131928600187796,0.43548595704794746,-0.01775861320579109,0.38568638275451345,-0.8184,-0.0928,10.403513300000002,0.0879645943005142,0.4754276882432554,-0.5442809272344317,nan,nan,nan
25.430135628000244,1526834.8678473122,-4462996.261749881,4278796.803133758,-1.3930944288510037,-1.9355669154651651,-0.9872045433212746,-0.8175042880720275,0.4482905211560156,0.004922105823560543,0.3615219510023151,-0.6684,0.7272000000000001,10.4735133,0.4435754293943589,0.0805469449795383,-0.8268060999010137,nan,nan,nan
25.505919919999542,1526834.7620765592,-4462996.40870788,4278796.728180211,-1.378083956281778,-2.044839575132014,-1.003739709316023,-0.8166043651558808,0.46758337943002903,0.0018529398120610094,0.338407537238683,-1.0384,0.4272,10.7135133,0.39994219809450066,-0.5226824777410018,-0.45046947993973646,nan,nan,nan
25.59062408600039,1526834.6589634365,-4462996.5617100205,4278796.653076851,-1.3825548225814726,-2.07740942281232,-0.985201295284375,-0.8139839801014305,0.49315385452945687,-0.0012389346301595271,0.3069655053889592,-0.1284,1.5572,10.143513300000002,0.5646576462514655,-0.6917612490279526,-0.6228207435741765,nan,nan,nan
25.6647773779996,1526834.542184446,-4462996.737180658,4278796.569860756,-1.208155907866804,-2.1385587910562984,-1.061501793413199,-0.8237699959869457,0.4885106421276993,0.007308064931681095,0.2875881412425562,1.5415999999999999,-0.0928,10.343513300000001,-0.142200700806238,-0.027445302487610835,-0.5442809272344317,nan,nan,nan
25.747670585999913,1526834.4419242688,-4462996.914651365,4278796.481770836,-1.2783680725642654,-2.154140400103942,-1.2131176256275336,-0.8265297990516304,0.498538930263304,0.02892230869433497,0.2597516639179149,-0.8484,0.6572,8.573513300000002,0.32140238175475583,0.03145955976719779,-0.8246244383360208,nan,nan,nan
25.82141058599973,1526834.3477340555,-4462997.0733685205,4278796.392388279,-1.2816640260309269,-2.142920218484583,-1.3004951428274678,-0.831225801160001,0.5005955352786875,0.04752683515179229,0.23708432685894065,0.06159999999999999,1.1672,8.843513300000001,0.13159782560037245,0.09254608358699933,-0.7918995148611272,nan,nan,nan
25.89827142000013,1526834.249257454,-4462997.238019706,4278796.292464789,-1.343406774563582,-2.195419215917689,-1.4109963055883485,-0.8341946089530572,0.5009735952676804,0.058084086531484336,0.22309426412791752,-1.1484,0.9772000000000001,9.143513300000002,0.05196717847813116,0.04018620602716944,-0.4581052954172117,nan,nan,nan
25.971940960999746,1526834.150239363,-4462997.399836829,4278796.188464897,-1.3517519934985511,-2.2648294628698213,-1.4199346298325808,-0.8365680765209316,0.5024703418607661,0.06126034364296049,0.2095819165621976,-0.5384,1.7872,10.2135133,0.04214970143566305,-0.12452924212979542,-0.3610213557750271,nan,nan,nan
26.054905085999962,1526834.5069918009,-4462995.846885368,4278796.999797049,-0.28530448250509177,-0.24031429066432342,0.25199196558234926,-0.8851546593116502,0.39829905160230067,0.1179150340680255,0.20965481127096705,0.9416,-0.012799999999999992,11.4735133,-0.6287112297996573,-0.043807764225057666,-0.16794430727315438,42.40313,-71.113681,32.4
26.128445295000347,1526834.4841596796,-4462995.86611705,4278797.019963263,-0.24033843052725748,-0.2683324764188616,0.29617180281703104,-0.8895314889148497,0.39547181060499165,0.10799699192755105,0.20167406262850243,-1.0784,0.31720000000000004,10.503513300000002,-0.13456488532876282,-0.2968805057642354,-0.10903944501834574,nan,nan,nan
26.20773612799985,1526834.465108523,-4462995.88738724,4278797.043440222,-0.09446011793334502,-0.2516598957130475,0.2700702128390003,-0.8883268685822076,0.39642703119927397,0.10522396683795007,0.20651610312295146,0.5916,-0.47279999999999994,10.023513300000001,0.006152285613280012,-0.015446163880149816,0.1451241273033285,nan,nan,nan
26.281483710999964,1526834.4581411367,-4462995.905949695,4278797.063360623,-0.05274071628828156,-0.17605384552480857,0.23310195700793862,-0.8835279153737673,0.4087227035897212,0.1021170947395699,0.20468579297129622,-0.16840000000000002,0.2472,8.923513300000002,0.33558318192720976,-0.14961835012721392,0.05131268000863329,nan,nan,nan
26.358425503000035,1526834.454082954,-4462995.919496319,4278797.081296867,0.07020682651958571,-0.02035208318148979,0.18594692774284882,-0.8804528775919309,0.4213044143559056,0.10179520291688406,0.19220576995545932,1.3015999999999999,0.6772,8.523513300000001,0.353036474447153,-0.19870573533955443,-0.2333941542229417,nan,nan,nan
26.432109502999992,1526834.4592625066,-4462995.920997807,4278797.095015218,0.15042328353661807,0.09848177206666592,0.1758101533913622,-0.8848318871867534,0.4154481312079262,0.10672485138909386,0.1818933433253976,0.7716,1.1972,8.893513300000002,-0.13565571611125926,0.018369590377240317,-0.3413864016900909,nan,nan,nan
26.508589002999543,1526834.4707584619,-4462995.9134714315,4278797.10845134,0.08547110362960778,0.14834569650087276,0.1458040074326093,-0.8902402443694295,0.4030309218755321,0.12076269908415256,0.17451290606678002,-1.4184,0.8171999999999999,8.753513300000002,-0.2589195945333588,0.2888956244363614,-0.3839288022074526,nan,nan,nan
26.593336752999676,1526834.477128171,-4462995.902416011,4278797.119317342,0.050078075783690085,0.1694675308567672,0.19349683330151285,-0.8958962256097912,0.3909589251458556,0.13386199052505338,0.1631013177026568,-1.5184,1.0772,9.783513300000001,-0.25128377905588356,0.22780910061655987,-0.47992191106714077,nan,nan,nan
26.66526004499974,1526834.4812376695,-4462995.888509195,4278797.135196046,0.20973720226337272,0.06190702795829056,0.24017815790395441,-0.9050196320483526,0.3728158430812631,0.1331125298198012,0.1556562485619799,-0.1384,-0.6928000000000001,11.663513300000002,-0.46181412007769956,-0.044898595007554123,-0.250847446742885,nan,nan,nan
26.743426127999555,1526834.4976509253,-4462995.883664581,4278797.153991498,0.24717229983906125,0.0005974945113929597,0.33393928468326634,-0.9062793250435752,0.3732019563935731,0.13030634421379642,0.14966075623539957,-1.2984,-0.0628,11.203513300000001,0.006152285613280012,-0.1278017344772848,-0.11558442971332447,nan,nan,nan
26.816051628000423,1526834.5155428424,-4462995.88362133,4278797.178164166,0.3275575493247933,0.08173002166566384,0.3839727686748274,-0.9039414596916358,0.38742520006615844,0.1265204296081743,0.12955359220322685,0.1616,0.7472000000000001,9.8735133,0.4370304446993801,-0.3525128756715547,-0.40356375629238883,nan,nan,nan
26.89492796200011,1526834.541271819,-4462995.877201604,4278797.208324444,0.44144597100943844,0.1475685198736823,0.44947575283631375,-0.9122928721982457,0.37304123546858214,0.12636341938589357,0.11222405612968676,0.5916,0.9372,10.233513300000002,-0.35818519574053626,-0.15398167325719972,-0.4711952648071691,nan,nan,nan
26.966949212000145,1526834.5731915631,-4462995.86653133,4278797.240824799,0.4777270182791781,0.1430463295537472,0.3279492023234951,-0.9089194762840525,0.37443692602371176,0.15396884301735592,0.09977960712529901,-0.10840000000000002,-1.6328,8.8035133,0.1992293341151527,0.5757841202329292,-0.5835508354043041,nan,nan,nan
27.044753627999853,1526834.6105116575,-4462995.855356533,4278797.266444231,0.4313078679503842,0.3133191937444361,0.27382188665468565,-0.9004583241498512,0.3946790933827897,0.1628335361594289,0.08299674556476162,-0.9683999999999999,0.8271999999999999,7.6335133000000015,0.6410158010262174,0.027096236637211966,-0.3741113251649845,nan,nan,nan
27.12407729499955,1526833.7852389396,-4462996.203180577,4278796.818633147,-0.617258851286385,-0.3414732919600048,-0.07492378331860117,-0.8955284989629975,0.4234729897752717,0.12593812944482483,0.053281540748714426,0.2216,2.0172,10.533513300000001,0.09450957899549293,-0.07980518004744072,0.03385938748868999,42.403128,-71.113691,32.4
27.20468437799991,1526833.731418006,-4462996.232954814,4278796.812100283,-0.5289723421126292,-0.41465976863384496,-0.15127463411244124,-0.8827156023503357,0.43697797193633164,0.16750016723799913,0.042510139280905565,0.6416,-0.4228,10.1335133,0.48393616834672776,0.7699519995172984,-0.5704608660143466,nan,nan,nan
27.2789172949997,1526833.6923107717,-4462996.263610853,4278796.800916461,-0.4894244420224464,-0.47262649978415544,-0.2013013097421973,-0.8888439953795654,0.4224592844104005,0.17352194064452833,0.037076158981823905,-0.5184000000000001,0.17720000000000002,10.073513300000002,-0.38763762686794057,0.06854780637207729,-0.2737548931753106,nan,nan,nan
27.355459919999703,1526833.6548831386,-4462996.299753901,4278796.785522397,-0.5716524058233844,-0.5481764639876066,-0.129892751007479,-0.9014118981925613,0.40900854632322153,0.1401341584374149,0.02304380670009705,-2.5684,0.8472,10.613513300000001,-0.42036255034283426,-0.9753772524770311,-0.03049962867860091,nan,nan,nan
27.429174502999558,1526833.6126835202,-4462996.340220516,4278796.77593366,-0.5744266917514278,-0.5888348472631706,-0.23730586810442095,-0.9003020906500605,0.41391239425412313,0.13455350038523534,0.005294482484164217,-0.1484,-0.9128000000000001,9.263513300000001,0.19595684176766334,-0.331787090804122,-0.3522947095150554,nan,nan,nan
27.505554919999668,1526833.5686830336,-4462996.385324652,4278796.757756277,-0.5055029871101289,-0.5775391859711976,-0.3690657469933706,-0.9007778651744887,0.4179152510320021,0.11787433844200255,-0.007191763355009609,1.1516,-0.4228,8.823513300000002,0.13050699481787598,-0.5292274624359806,-0.09922196797587764,nan,nan,nan
27.59001600299962,1526833.5312819842,-4462996.428055501,4278796.730449918,-0.5121097950148457,-0.48949754666685125,-0.40237976191062197,-0.8984509978964226,0.4226392506286939,0.11808317482077717,-0.014772697381627623,0.36160000000000003,1.1972,8.573513300000002,0.1654135798577626,-0.07216936456996553,-0.17230763040314018,nan,nan,nan
27.66598254499968,1526833.4871617835,-4462996.47022757,4278796.695783376,-0.6680007062109845,-0.5032520034138053,-0.4452072742759947,-0.8942874224584281,0.42422017052818184,0.1422590810607047,-0.007043249407056532,-1.3684,0.1872,9.2135133,0.04433136300065597,0.5921465819703762,-0.0730420291959627,nan,nan,nan
27.740617462000046,1526833.4371217117,-4462996.5079262825,4278796.662432807,-0.7356725314540354,-0.6065949024260724,-0.42255750977816303,-0.8883170298918814,0.4350499471094676,0.14635400004828766,-0.014314508399752844,-1.3084,0.1572,10.763513300000001,0.353036474447153,0.04018620602716944,-0.17994344588061537,nan,nan,nan
27.817956044999846,1526833.3807971512,-4462996.554368401,4278796.630080959,-0.7149568362426986,-0.7465111981868766,-0.4440071373829887,-0.8826149171182364,0.4446779430767936,0.15172326471340897,-0.015247508741127652,-0.10840000000000002,-0.12279999999999999,11.0535133,0.2897682890623586,0.13945180723434691,-0.047952921198544204,nan,nan,nan
27.891637044999698,1526833.3277152102,-4462996.609793094,4278796.597115668,-0.6660512479260369,-0.8278694699228825,-0.43811198188541783,-0.8824555934473827,0.4449675115777826,0.15069011865429602,-0.02384382373703742,0.12159999999999999,0.9072,10.773513300000001,0.04433136300065597,-0.12671090369478832,-0.19085175370557994,nan,nan,nan
27.966321545000028,1526833.2778016906,-4462996.671833184,4278796.564283793,-0.6729022386551652,-0.7765346463727729,-0.45905699961887314,-0.8798165506703007,0.44579541399209827,0.15943782648200328,-0.04205788955318499,-0.23840000000000003,1.6072,8.9735133,0.11850785621041497,0.0009162978572970228,-0.5311909578444742,nan,nan,nan
28.042351502999736,1526833.2266849803,-4462996.730822282,4278796.529411738,-0.5273085368065864,-0.8952211364413789,-0.6188835481406905,-0.891385793772365,0.42651590523479854,0.14736729498861528,-0.042407902176773614,2.0216000000000003,-0.6428,10.233513300000002,-0.5676247059798558,-0.35360370645405115,0.06549348018108721,nan,nan,nan
28.12452233699969,1526831.2286161308,-4462998.855197687,4278795.069876491,-3.713562606631804,-3.9426151718089244,-3.0388134255602113,-0.8116420979506496,0.5670188317790466,0.0760696597373942,-0.11806844060279703,-0.4184,-0.11279999999999998,7.683513300000001,0.2723149965424153,0.37507125625358145,-0.3228422783876511,42.403106,-71.113731,32.5
28.202852252999946,1526830.9146423037,-4462999.188537422,4278794.812951273,-3.9736312372161713,-3.9671691283881696,-3.15832980340397,-0.815895441028127,0.5595210868196308,0.06877800431011963,-0.1285315890882858,-1.2884,2.1372,8.503513300000002,-0.1618356548911742,-0.30887964437169646,-0.10467612188835992,nan,nan,nan
28.277024295000047,1526830.619659789,-4462999.483040222,4278794.57849266,-4.101336837363903,-4.221225438398472,-3.3796740006659998,-0.8149308325416136,0.5593102555402258,0.09033430847993627,-0.12206346500389355,1.0316,-0.0728,10.863513300000001,-0.07675085385645064,0.57251162788544,-0.1864884305755941,nan,nan,nan
28.359349628000018,1526830.282058079,-4462999.830510567,4278794.300294656,-4.354511194113138,-4.488311652961881,-3.538469220751886,-0.8229453608748996,0.5488574640780789,0.08672402651145397,-0.11830199035792967,-1.0384,0.4672,11.093513300000001,-0.31346113365818157,-0.06889687222247616,0.12439834243589584,nan,nan,nan
28.433474878000197,1526829.9594259914,-4463000.163056126,4278794.038124309,-4.571950115167616,-4.7177453688835085,-3.5437172477371846,-0.8311408292761376,0.5380330496670016,0.07213951784266572,-0.12050414888448091,-1.3584,1.9272,11.683513300000001,-0.3101886413106922,-0.4103269071438668,0.1680315737357541,nan,nan,nan
28.51113371199972,1526829.6052560674,-4463000.5285202,4278793.763607301,-4.6448270840597825,-5.031804807235537,-3.8869874400967364,-0.8377656807154299,0.5275626147735689,0.07842391902296081,-0.11694460735969409,2.1416,-1.9727999999999999,10.823513300000002,-0.3429135647855859,0.13945180723434691,-0.009773843811168244,nan,nan,nan
28.594600962000186,1526829.2639543682,-4463000.898257006,4278793.477991627,-4.93017132247174,-5.113743240639298,-4.115577438802349,-0.8486363762423212,0.5153792411876054,0.06976238241526203,-0.09661133074169943,-1.4684,-0.7128000000000001,8.683513300000001,-0.4498149814702386,0.03255039054969425,0.5967280712568612,nan,nan,nan
28.669300544999714,1526828.8455095678,-4463001.332282343,4278793.128684905,-5.089190877901759,-5.163396968638593,-4.380768576536093,-0.842363819938378,0.526418034357374,0.057252579086298265,-0.10014684571595706,0.3816,-0.2328,8.213513300000002,0.33121985879722393,-0.257610597594363,0.08512843426602341,nan,nan,nan
28.74355216999993,1526828.4688125344,-4463001.71447204,4278792.804424612,-5.288230157577641,-5.146707490325,-4.583778449810063,-0.835091825240372,0.5380254269957728,0.054889363365645254,-0.10068486315618773,-0.3984000000000001,0.4872,7.653513300000001,0.3748530900970822,-0.018718656227639185,0.019678587316236066,nan,nan,nan
28.819856627999798,1526828.0648820945,-4463002.107592566,4278792.454302248,-5.428201361882552,-5.249906389602897,-4.736944103285433,-0.8354476245879282,0.5362585633218921,0.0547620461526013,-0.10702868163373061,0.4716,0.9172,9.363513300000001,-0.03420845333908886,-0.09725847256738401,-0.13849187614575006,nan,nan,nan
28.894542711999748,1526827.660264866,-4463002.498919717,4278792.10121122,-5.717158159581893,-5.425275545175127,-4.8411203856109735,-0.8371195826051533,0.5318966458464962,0.07950493519769163,-0.09997863967956884,-1.4584000000000001,0.5472,10.573513300000002,-0.20328722462603954,0.6412339671827166,-0.19957839996555157,nan,nan,nan
28.970637587000056,1526827.2247841666,-4463002.912167475,4278791.732459048,-5.904609580491271,-5.667038212843042,-5.012139491602972,-0.8434681133594939,0.5226410572975428,0.07916789429221938,-0.09560497917349182,-0.3284,-0.3628,10.923513300000002,-0.3003711642682241,0.016187928812247405,0.09821840365598089,nan,nan,nan
29.044943752999643,1526826.7842990637,-4463003.334929704,4278791.358552399,-6.113173817872468,-5.945060772795653,-5.15985589373171,-0.8426128822137036,0.5244694585532969,0.06440288762713692,-0.10386330629417861,-0.6884,-0.7028000000000001,11.513513300000001,0.10869037916794687,-0.4430518306187605,0.021860248881228977,nan,nan,nan
29.127874169999814,1526830.1190698731,-4462999.5139074065,4278795.019188804,-0.5109575500256458,-1.020548505619887,1.7394681390861706,-0.9574034061619793,0.24101191656281196,0.14821851318951645,0.05764760922011117,-1.2884,0.7172000000000001,9.7935133,0.687921524673565,-0.02308197935762501,-0.5126468345420344,42.403105,-71.113745,32.5
29.207409587000257,1526830.074973257,-4462999.601982699,4278795.169308239,-0.262591703604232,-0.9245162728977225,1.7933593271633566,-0.9641691459899736,0.22036065582007047,0.13521944298381963,0.05945369697002969,2.0616,-1.7728000000000002,10.253513300000002,-0.5196281515500117,-0.2739730593318099,0.03276855670619353,nan,nan,nan
29.282480419999956,1526830.055241799,-4462999.671451969,4278795.304063426,-0.24971130135659475,-0.7265472842416165,1.796071667249093,-0.9612320534838703,0.2217643532042643,0.15363968391346122,0.056994377677038695,0.11159999999999999,-0.9828000000000001,8.203513300000001,0.09123708664800358,0.46670104198328377,-0.16139932257817563,nan,nan,nan
29.36519633700027,1526830.0346802792,-4462999.73127672,4278795.451954061,-0.239994956719794,-0.3703856468704825,1.8580951906859737,-0.9568836685636618,0.23942564503787153,0.15736303860328277,0.04781087713725867,-0.10840000000000002,0.9072,8.113513300000001,0.4752095220867561,0.029277898202204878,-0.16249015336067207,nan,nan,nan
29.439233504000185,1526830.0169259023,-4462999.758677156,4278795.589412459,-0.12099560041234453,-0.11716237031227195,2.0801299315241315,-0.9536393175826797,0.25117830741966146,0.15404707828219424,0.061245473887461065,0.49160000000000004,1.4672,10.833513300000002,0.26358835028244365,-0.00017453292519943315,0.42328597683992475,nan,nan,nan
29.5156982540002,1526830.0076727082,-4462999.767637202,4278795.748491351,0.11344257460828094,-0.018383558032334935,2.269571727190387,-0.9532070094566196,0.2519369165411615,0.15261488049204003,0.06806530699001771,1.6416,-0.5027999999999999,11.823513300000002,-0.008028514559173916,0.009642944117268671,0.18330320469070446,nan,nan,nan
29.59973025399995,1526830.0160884976,-4462999.769000994,4278795.916860568,0.03130346290166419,0.08956934591239729,2.5019417105313613,-0.9535888345360279,0.24073144984345662,0.16068212362892426,0.08305395479645603,-2.4484,0.1572,10.933513300000001,-0.3374594108731036,0.3281655326062338,0.2836596366803784,nan,nan,nan
29.77630208699975,1526830.0219272233,-4462999.752294509,4278796.383523049,0.5423723499623314,0.1633775005723762,2.7300708165663714,-0.9650279512375377,0.2261688700726879,0.09158868970493007,0.09581340206465556,1.1416,-2.2228,11.073513300000002,-0.2621920868808481,-0.680852941202988,0.2738421596379103,nan,nan,nan
29.85135146199991,1526830.062584969,-4462999.740047275,4278796.588176779,0.4902589249663525,0.5192437767420961,2.7978178666119913,-0.9626071929494187,0.23454390021338103,0.10150105025491783,0.08985593084838685,0.11159999999999999,1.3272,7.863513300000001,0.27013333497742237,0.20381082340163784,-0.1864884305755941,nan,nan,nan
29.926823462000357,1526830.0997425916,-4462999.700692837,4278796.800228524,0.4903418254380246,0.7528153179992553,2.882947032812959,-0.9605689208593325,0.23151081739363036,0.12110062947362114,0.09510377388257715,0.24159999999999998,0.047200000000000006,8.913513300000002,-0.03202679177409595,0.5430591967580356,0.008770279491271507,nan,nan,nan
30.002097462000165,1526830.1364714415,-4462999.644303519,4278797.016174469,0.5032514134266334,0.9382881266642991,3.082864853735186,-0.9580843230249814,0.23170068405447125,0.138366741716267,0.09614503796880193,-0.3984000000000001,0.19720000000000001,10.5535133,0.06069382473810281,0.45688356494081567,-0.0730420291959627,nan,nan,nan
30.078130545000022,1526830.174553818,-4462999.573300755,4278797.249463075,0.518115022644726,1.112297469700027,3.359205723038044,-0.9587447698001647,0.23824119485041234,0.13313533733182403,0.0795272404108427,-0.9984,0.5472,11.453513300000001,0.20904681115762083,-0.25324727446437717,-0.36647550968750936,nan,nan,nan
30.158692087000418,1526829.2855339202,-4462999.605134762,4278795.135619924,-0.018884899167870173,0.301249295839631,1.3850472280562394,-0.8700110259412221,0.31791458794898203,0.061211318912039014,0.3718390841529777,-0.8184,0.017200000000000007,11.563513300000002,-0.0025743606466916364,-0.07871434926494426,-0.46246861854719745,42.403106,-71.113756,32.4
30.23224304500036,1526829.2840193599,-4462999.580974706,4278795.246700077,0.04819923941532525,0.39372882301334355,1.4242174472641438,-0.8705323739613166,0.3117613904746202,0.07507259168115543,0.3732858527049024,-0.7084,-0.6528,9.593513300000001,-0.011301006906663283,0.3685262715586027,-0.0926769832808989,nan,nan,nan
30.61519016999955,1526829.3019835176,-4462999.434229514,4278795.777514821,0.5407303328660321,1.2293540290451423,1.8077283064440681,-0.8683444163941019,0.30789738528212635,0.0907009707170489,0.37808796479304574,0.1716,-0.0628,9.643513300000002,0.014988014951501302,0.08970992355250854,-0.0008290313946973105,nan,nan,nan
30.690580004000367,1526829.348188001,-4462999.329183311,4278795.931982117,0.613918011937026,1.2569542718683806,2.0136646095142883,-0.8690153621952144,0.2851992770092786,0.0670701572986257,0.398717026497225,-1.7384,0.09720000000000001,11.453513300000001,-0.7192501847468632,-0.1321650576072706,0.5356415474370597,nan,nan,nan
30.77159554500031,1526829.397946951,-4462999.227305335,4278796.095192569,0.8856993586494808,1.3930762585947645,2.097976293885543,-0.8767958354012609,0.27987747995161655,0.052156312763398854,0.387527262053407,0.9016,-2.2128,10.583513300000002,-0.29709867192073475,-0.3590578603665334,-0.22030418483298425,nan,nan,nan
